* Measurement data measured by REW V5.31
* Source: EXCL: Microphone (USB Sound Device        ), MICROPHONE (Master Volume), L, volume: 0.560
* Format: 256k Log Swept Sine, 1 sweep at -5.0 dBFS with no timing reference
* Dated: May 13, 2024 12:15:59 AM
* REW Settings:
*  C-weighting compensation: Off
*  Target level: 75.0 dB
* Note: KZ Vader 0000
* Measurement: L KZ Vader 0000
* Smoothing: 1/12 octave
* Frequency Step: 96 ppo
* Start Frequency: 0.36621094 Hz
*
* Freq(Hz) SPL(dB) Phase(degrees)
0.366211 84.086 158.2506
0.368865 84.081 158.2287
0.371538 84.073 158.1959
0.374230 84.064 158.1546
0.376942 84.053 158.1071
0.379673 84.042 158.0548
0.382424 84.030 157.9989
0.385196 84.018 157.9399
0.387987 84.005 157.8782
0.390798 83.992 157.8140
0.393630 83.980 157.7474
0.396483 83.967 157.6784
0.399356 83.954 157.6071
0.402250 83.941 157.5333
0.405165 83.928 157.4572
0.408101 83.915 157.3787
0.411058 83.901 157.2977
0.414037 83.888 157.2143
0.417037 83.874 157.1284
0.420059 83.861 157.0400
0.423103 83.847 156.9492
0.426169 83.833 156.8557
0.429257 83.819 156.7598
0.432368 83.805 156.6612
0.435501 83.791 156.5600
0.438656 83.777 156.4563
0.441835 83.763 156.3499
0.445037 83.748 156.2408
0.448262 83.734 156.1291
0.451510 83.719 156.0146
0.454782 83.704 155.8975
0.458077 83.690 155.7777
0.461397 83.675 155.6551
0.464740 83.660 155.5298
0.468108 83.644 155.4017
0.471500 83.629 155.2708
0.474917 83.614 155.1372
0.478358 83.598 155.0007
0.481825 83.583 154.8615
0.485316 83.567 154.7195
0.488833 83.551 154.5746
0.492375 83.535 154.4269
0.495943 83.519 154.2764
0.499537 83.503 154.1230
0.503157 83.487 153.9668
0.506803 83.470 153.8078
0.510475 83.454 153.6460
0.514175 83.437 153.4813
0.517900 83.420 153.3138
0.521653 83.403 153.1435
0.525434 83.386 152.9705
0.529241 83.369 152.7946
0.533076 83.352 152.6160
0.536939 83.334 152.4346
0.540830 83.317 152.2505
0.544749 83.299 152.0636
0.548696 83.281 151.8741
0.552673 83.264 151.6820
0.556677 83.245 151.4872
0.560711 83.227 151.2899
0.564774 83.209 151.0900
0.568867 83.191 150.8876
0.572989 83.172 150.6827
0.577141 83.153 150.4754
0.581324 83.135 150.2658
0.585536 83.116 150.0539
0.589779 83.096 149.8398
0.594053 83.077 149.6234
0.598358 83.058 149.4050
0.602694 83.038 149.1846
0.607061 83.019 148.9622
0.611460 82.999 148.7380
0.615891 82.979 148.5121
0.620354 82.959 148.2844
0.624849 82.938 148.0553
0.629377 82.918 147.8247
0.633938 82.898 147.5927
0.638532 82.877 147.3596
0.643159 82.856 147.1254
0.647819 82.835 146.8903
0.652514 82.814 146.6544
0.657242 82.793 146.4179
0.662005 82.771 146.1809
0.666802 82.750 145.9437
0.671634 82.728 145.7063
0.676501 82.706 145.4690
0.681403 82.684 145.2320
0.686341 82.662 144.9955
0.691314 82.639 144.7596
0.696324 82.616 144.5247
0.701370 82.594 144.2908
0.706452 82.570 144.0582
0.711571 82.547 143.8269
0.716728 82.522 143.5969
0.721921 82.497 143.3681
0.727153 82.471 143.1401
0.732422 82.443 142.9121
0.737729 82.413 142.6833
0.743075 82.381 142.4529
0.748460 82.348 142.2200
0.753883 82.314 141.9839
0.759346 82.279 141.7443
0.764849 82.243 141.5009
0.770391 82.206 141.2535
0.775974 82.169 141.0020
0.781597 82.131 140.7463
0.787261 82.093 140.4865
0.792966 82.054 140.2223
0.798712 82.014 139.9540
0.804500 81.974 139.6813
0.810329 81.934 139.4045
0.816201 81.892 139.1233
0.822116 81.850 138.8379
0.828073 81.808 138.5483
0.834074 81.765 138.2545
0.840118 81.721 137.9565
0.846206 81.676 137.6543
0.852338 81.631 137.3481
0.858514 81.585 137.0378
0.864735 81.538 136.7236
0.871001 81.491 136.4054
0.877313 81.443 136.0835
0.883670 81.394 135.7578
0.890074 81.344 135.4285
0.896524 81.293 135.0958
0.903020 81.242 134.7597
0.909564 81.190 134.4204
0.916155 81.137 134.0781
0.922794 81.083 133.7330
0.929481 81.028 133.3852
0.936216 80.972 133.0351
0.943000 80.915 132.6828
0.949834 80.857 132.3287
0.956717 80.798 131.9729
0.963649 80.739 131.6160
0.970632 80.678 131.2581
0.977666 80.616 130.8997
0.984750 80.553 130.5412
0.991886 80.489 130.1830
0.999074 80.424 129.8256
1.006314 80.357 129.4695
1.013606 80.289 129.1152
1.020951 80.221 128.7635
1.028349 80.151 128.4148
1.035801 80.079 128.0698
1.043307 80.006 127.7293
1.050867 79.932 127.3940
1.058482 79.857 127.0647
1.066152 79.780 126.7422
1.073878 79.702 126.4271
1.081660 79.622 126.1203
1.089498 79.540 125.8223
1.097393 79.457 125.5335
1.105345 79.371 125.2540
1.113355 79.284 124.9839
1.121423 79.194 124.7231
1.129549 79.102 124.4715
1.137734 79.008 124.2292
1.145979 78.912 123.9961
1.154283 78.813 123.7721
1.162647 78.712 123.5574
1.171072 78.609 123.3520
1.179558 78.503 123.1560
1.188106 78.396 122.9694
1.196715 78.286 122.7924
1.205387 78.174 122.6251
1.214122 78.061 122.4676
1.222920 77.945 122.3199
1.231782 77.828 122.1823
1.240708 77.709 122.0548
1.249699 77.588 121.9377
1.258754 77.466 121.8310
1.267876 77.342 121.7349
1.277063 77.217 121.6496
1.286318 77.091 121.5751
1.295639 76.963 121.5117
1.305027 76.834 121.4596
1.314484 76.704 121.4187
1.324009 76.573 121.3893
1.333604 76.442 121.3716
1.343268 76.310 121.3655
1.353002 76.177 121.3712
1.362806 76.044 121.3887
1.372681 75.911 121.4181
1.382628 75.778 121.4594
1.392647 75.645 121.5126
1.402739 75.512 121.5777
1.412904 75.379 121.6549
1.423142 75.246 121.7444
1.433455 75.114 121.8471
1.443843 74.982 121.9641
1.454305 74.850 122.0976
1.464844 74.717 122.2509
1.475459 74.583 122.4279
1.486150 74.446 122.6331
1.496920 74.306 122.8705
1.507767 74.163 123.1437
1.518693 74.017 123.4555
1.529698 73.868 123.8081
1.540783 73.716 124.2032
1.551948 73.562 124.6426
1.563194 73.406 125.1275
1.574521 73.247 125.6590
1.585931 73.088 126.2382
1.597423 72.928 126.8658
1.608999 72.768 127.5424
1.620658 72.608 128.2683
1.632402 72.450 129.0435
1.644232 72.293 129.8677
1.656146 72.139 130.7402
1.668147 71.988 131.6598
1.680235 71.841 132.6249
1.692411 71.699 133.6333
1.704675 71.562 134.6821
1.717028 71.432 135.7679
1.729470 71.308 136.8869
1.742003 71.193 138.0343
1.754626 71.088 139.2052
1.767341 70.992 140.3944
1.780147 70.907 141.5965
1.793047 70.835 142.8071
1.806040 70.776 144.0223
1.819128 70.730 145.2401
1.832310 70.700 146.4603
1.845587 70.685 147.6838
1.858961 70.685 148.9109
1.872432 70.701 150.1404
1.886001 70.732 151.3690
1.899667 70.778 152.5914
1.913433 70.837 153.8015
1.927299 70.910 154.9923
1.941265 70.995 156.1568
1.955332 71.091 157.2884
1.969501 71.197 158.3808
1.983773 71.313 159.4285
1.998148 71.437 160.4266
2.012627 71.569 161.3710
2.027212 71.706 162.2583
2.041902 71.847 163.0856
2.056698 71.992 163.8509
2.071602 72.139 164.5525
2.086614 72.287 165.1891
2.101734 72.435 165.7600
2.116964 72.580 166.2646
2.132304 72.723 166.7026
2.147756 72.862 167.0740
2.163320 72.997 167.3788
2.178996 73.127 167.6174
2.194786 73.254 167.7903
2.210690 73.378 167.8987
2.226710 73.500 167.9442
2.242845 73.623 167.9291
2.259098 73.746 167.8561
2.275468 73.869 167.7285
2.291957 73.994 167.5496
2.308566 74.120 167.3231
2.325295 74.246 167.0526
2.342145 74.373 166.7414
2.359117 74.499 166.3929
2.376212 74.625 166.0105
2.393431 74.750 165.5969
2.410775 74.874 165.1550
2.428244 74.996 164.6872
2.445840 75.116 164.1958
2.463564 75.233 163.6824
2.481416 75.346 163.1481
2.499397 75.456 162.5935
2.517509 75.562 162.0179
2.535752 75.663 161.4194
2.554127 75.760 160.7948
2.572635 75.852 160.1399
2.591277 75.940 159.4503
2.610055 76.023 158.7231
2.628968 76.102 157.9571
2.648019 76.177 157.1531
2.667208 76.248 156.3134
2.686535 76.315 155.4411
2.706003 76.378 154.5404
2.725612 76.438 153.6154
2.745363 76.495 152.6706
2.765257 76.549 151.7106
2.785295 76.600 150.7397
2.805478 76.648 149.7620
2.825808 76.694 148.7814
2.846285 76.737 147.8008
2.866910 76.777 146.8224
2.887685 76.816 145.8465
2.908611 76.851 144.8715
2.929688 76.885 143.8939
2.950917 76.915 142.9083
2.972301 76.943 141.9093
2.993839 76.967 140.8928
3.015534 76.987 139.8568
3.037386 77.005 138.8009
3.059396 77.019 137.7268
3.081565 77.030 136.6368
3.103896 77.038 135.5345
3.126388 77.043 134.4237
3.149043 77.046 133.3087
3.171862 77.047 132.1940
3.194847 77.045 131.0838
3.217998 77.042 129.9821
3.241317 77.036 128.8914
3.264805 77.029 127.8131
3.288463 77.020 126.7463
3.312293 77.008 125.6879
3.336295 76.994 124.6340
3.360471 76.978 123.5810
3.384822 76.959 122.5263
3.409350 76.937 121.4693
3.434056 76.913 120.4109
3.458940 76.887 119.3531
3.484005 76.859 118.2993
3.509252 76.830 117.2533
3.534681 76.800 116.2200
3.560295 76.769 115.2043
3.586094 76.738 114.2113
3.612081 76.707 113.2458
3.638255 76.676 112.3114
3.664620 76.644 111.4102
3.691175 76.612 110.5427
3.717923 76.580 109.7080
3.744864 76.547 108.9042
3.772001 76.513 108.1295
3.799335 76.479 107.3823
3.826866 76.446 106.6610
3.854597 76.414 105.9650
3.882529 76.384 105.2939
3.910664 76.356 104.6480
3.939002 76.332 104.0282
3.967546 76.312 103.4365
3.996296 76.296 102.8753
4.025255 76.285 102.3479
4.054423 76.279 101.8575
4.083804 76.277 101.4061
4.113396 76.279 100.9938
4.143204 76.286 100.6188
4.173227 76.298 100.2770
4.203468 76.315 99.9636
4.233928 76.338 99.6728
4.264609 76.366 99.3986
4.295512 76.400 99.1359
4.326639 76.442 98.8805
4.357992 76.491 98.6303
4.389572 76.547 98.3852
4.421380 76.612 98.1466
4.453419 76.684 97.9164
4.485691 76.765 97.6947
4.518196 76.853 97.4793
4.550936 76.947 97.2661
4.583914 77.048 97.0491
4.617131 77.154 96.8221
4.650589 77.265 96.5786
4.684289 77.379 96.3131
4.718233 77.497 96.0216
4.752424 77.619 95.7023
4.786862 77.744 95.3555
4.821549 77.872 94.9831
4.856488 78.005 94.5871
4.891680 78.140 94.1694
4.927127 78.277 93.7310
4.962831 78.416 93.2722
4.998794 78.555 92.7926
5.035017 78.694 92.2914
5.071503 78.832 91.7676
5.108253 78.967 91.2200
5.145270 79.101 90.6481
5.182555 79.232 90.0525
5.220110 79.361 89.4350
5.257937 79.489 88.7987
5.296038 79.613 88.1477
5.334415 79.735 87.4861
5.373071 79.854 86.8176
5.412006 79.969 86.1452
5.451224 80.080 85.4705
5.490725 80.187 84.7938
5.530514 80.290 84.1145
5.570590 80.388 83.4327
5.610957 80.482 82.7495
5.651616 80.571 82.0678
5.692570 80.657 81.3916
5.733821 80.739 80.7254
5.775370 80.816 80.0735
5.817221 80.890 79.4388
5.859375 80.960 78.8231
5.901834 81.027 78.2265
5.944602 81.089 77.6487
5.987679 81.148 77.0900
6.031068 81.204 76.5513
6.074771 81.258 76.0346
6.118792 81.309 75.5424
6.163131 81.359 75.0771
6.207792 81.407 74.6406
6.252776 81.454 74.2338
6.298086 81.500 73.8567
6.343725 81.546 73.5080
6.389694 81.591 73.1862
6.435996 81.636 72.8894
6.482634 81.682 72.6159
6.529610 81.729 72.3645
6.576926 81.778 72.1342
6.624585 81.829 71.9244
6.672590 81.882 71.7339
6.720942 81.938 71.5604
6.769645 81.995 71.4005
6.818700 82.054 71.2501
6.868111 82.116 71.1051
6.917881 82.181 70.9619
6.968010 82.247 70.8179
7.018504 82.316 70.6715
7.069362 82.387 70.5213
7.120590 82.461 70.3652
7.172189 82.535 70.2007
7.224161 82.610 70.0251
7.276511 82.686 69.8358
7.329239 82.762 69.6310
7.382350 82.838 69.4100
7.435845 82.914 69.1727
7.489729 82.989 68.9197
7.544002 83.062 68.6518
7.598669 83.134 68.3695
7.653732 83.204 68.0734
7.709194 83.271 67.7640
7.765058 83.336 67.4420
7.821327 83.397 67.1088
7.878004 83.456 66.7667
7.935091 83.512 66.4181
7.992592 83.564 66.0656
8.050510 83.613 65.7111
8.108847 83.659 65.3561
8.167607 83.701 65.0018
8.226793 83.741 64.6499
8.286408 83.777 64.3021
8.346454 83.811 63.9604
8.406936 83.843 63.6265
8.467856 83.873 63.3015
8.529218 83.901 62.9858
8.591024 83.927 62.6794
8.653278 83.952 62.3822
8.715983 83.976 62.0938
8.779143 84.000 61.8140
8.842760 84.024 61.5423
8.906839 84.047 61.2776
8.971381 84.071 61.0184
9.036392 84.096 60.7628
9.101873 84.121 60.5087
9.167829 84.146 60.2542
9.234263 84.173 59.9979
9.301178 84.201 59.7381
9.368578 84.229 59.4731
9.436467 84.258 59.2009
9.504847 84.287 58.9200
9.573723 84.316 58.6290
9.643099 84.345 58.3271
9.712976 84.373 58.0141
9.783361 84.399 57.6896
9.854255 84.423 57.3534
9.925663 84.444 57.0058
9.997588 84.462 56.6470
10.070035 84.477 56.2778
10.143007 84.489 55.8994
10.216507 84.498 55.5128
10.290540 84.504 55.1193
10.365109 84.509 54.7196
10.440219 84.512 54.3149
10.515873 84.514 53.9064
10.592076 84.515 53.4952
10.668830 84.515 53.0820
10.746141 84.514 52.6675
10.824012 84.513 52.2520
10.902447 84.512 51.8358
10.981451 84.512 51.4191
11.061027 84.511 51.0017
11.141180 84.511 50.5835
11.221913 84.512 50.1641
11.303232 84.513 49.7430
11.385140 84.515 49.3199
11.467641 84.517 48.8943
11.550741 84.521 48.4661
11.634442 84.526 48.0350
11.718750 84.531 47.6009
11.803669 84.538 47.1638
11.889203 84.546 46.7240
11.975357 84.554 46.2821
12.062136 84.564 45.8384
12.149543 84.574 45.3938
12.237583 84.585 44.9489
12.326262 84.596 44.5045
12.415583 84.608 44.0615
12.505552 84.620 43.6206
12.596172 84.633 43.1824
12.687449 84.646 42.7476
12.779387 84.660 42.3165
12.871992 84.674 41.8893
12.965268 84.689 41.4663
13.059220 84.705 41.0473
13.153852 84.722 40.6322
13.249170 84.740 40.2208
13.345179 84.759 39.8130
13.441884 84.778 39.4084
13.539289 84.799 39.0070
13.637401 84.820 38.6088
13.736223 84.841 38.2138
13.835761 84.862 37.8223
13.936021 84.883 37.4348
14.037007 84.904 37.0517
14.138725 84.925 36.6736
14.241180 84.945 36.3012
14.344377 84.964 35.9352
14.448323 84.983 35.5761
14.553021 85.002 35.2243
14.658478 85.020 34.8801
14.764700 85.037 34.5435
14.871691 85.055 34.2143
14.979457 85.072 33.8920
15.088005 85.089 33.5760
15.197339 85.107 33.2654
15.307465 85.124 32.9593
15.418389 85.140 32.6566
15.530117 85.157 32.3565
15.642655 85.173 32.0580
15.756008 85.188 31.7605
15.870182 85.202 31.4635
15.985184 85.215 31.1667
16.101019 85.227 30.8702
16.217694 85.238 30.5741
16.335214 85.248 30.2787
16.453586 85.256 29.9844
16.572815 85.264 29.6913
16.692909 85.270 29.3998
16.813872 85.276 29.1098
16.935713 85.281 28.8211
17.058436 85.285 28.5333
17.182048 85.289 28.2458
17.306556 85.293 27.9575
17.431967 85.296 27.6675
17.558286 85.299 27.3747
17.685521 85.302 27.0782
17.813677 85.304 26.7769
17.942762 85.306 26.4703
18.072783 85.307 26.1579
18.203746 85.308 25.8395
18.335658 85.309 25.5152
18.468526 85.309 25.1853
18.602356 85.308 24.8503
18.737156 85.307 24.5106
18.872934 85.306 24.1669
19.009695 85.306 23.8196
19.147447 85.305 23.4690
19.286197 85.305 23.1155
19.425953 85.305 22.7591
19.566721 85.305 22.3999
19.708510 85.306 22.0379
19.851326 85.308 21.6730
19.995177 85.310 21.3054
20.140070 85.312 20.9352
20.286013 85.316 20.5628
20.433014 85.319 20.1884
20.581080 85.324 19.8127
20.730219 85.329 19.4363
20.880439 85.335 19.0597
21.031747 85.341 18.6836
21.184152 85.348 18.3087
21.337661 85.356 17.9356
21.492282 85.365 17.5649
21.648024 85.374 17.1972
21.804895 85.384 16.8330
21.962902 85.394 16.4729
22.122054 85.404 16.1176
22.282360 85.414 15.7675
22.443827 85.425 15.4230
22.606464 85.436 15.0845
22.770280 85.446 14.7519
22.935283 85.457 14.4253
23.101481 85.468 14.1042
23.268884 85.478 13.7883
23.437500 85.488 13.4770
23.607338 85.498 13.1697
23.778406 85.507 12.8660
23.950714 85.515 12.5655
24.124271 85.523 12.2682
24.299086 85.529 11.9738
24.475167 85.534 11.6827
24.652524 85.538 11.3947
24.831166 85.541 11.1098
25.011103 85.543 10.8278
25.192344 85.545 10.5481
25.374898 85.546 10.2699
25.558775 85.546 9.9923
25.743984 85.545 9.7139
25.930536 85.544 9.4336
26.118439 85.543 9.1505
26.307704 85.541 8.8635
26.498341 85.539 8.5720
26.690359 85.536 8.2757
26.883768 85.532 7.9745
27.078579 85.529 7.6683
27.274801 85.524 7.3574
27.472446 85.520 7.0418
27.671522 85.515 6.7218
27.872042 85.510 6.3976
28.074014 85.506 6.0692
28.277450 85.501 5.7371
28.482360 85.496 5.4014
28.688755 85.492 5.0628
28.896645 85.488 4.7217
29.106042 85.484 4.3791
29.316957 85.480 4.0358
29.529400 85.477 3.6927
29.743382 85.474 3.3508
29.958915 85.472 3.0109
30.176009 85.470 2.6737
30.394677 85.470 2.3394
30.614929 85.469 2.0081
30.836778 85.470 1.6796
31.060234 85.471 1.3534
31.285309 85.473 1.0291
31.512015 85.474 0.7063
31.740364 85.476 0.3847
31.970368 85.478 0.0644
32.202039 85.479 -0.2545
32.435388 85.480 -0.5717
32.670428 85.480 -0.8869
32.907171 85.480 -1.2000
33.145630 85.479 -1.5112
33.385817 85.477 -1.8208
33.627745 85.475 -2.1293
33.871425 85.472 -2.4371
34.116871 85.468 -2.7444
34.364096 85.464 -3.0514
34.613113 85.458 -3.3583
34.863934 85.452 -3.6649
35.116572 85.446 -3.9715
35.371041 85.439 -4.2782
35.627354 85.431 -4.5854
35.885525 85.424 -4.8938
36.145566 85.416 -5.2038
36.407492 85.408 -5.5160
36.671316 85.400 -5.8309
36.937051 85.392 -6.1488
37.204712 85.384 -6.4696
37.474313 85.377 -6.7930
37.745867 85.369 -7.1183
38.019389 85.360 -7.4443
38.294893 85.352 -7.7699
38.572394 85.344 -8.0939
38.851905 85.335 -8.4155
39.133442 85.327 -8.7346
39.417019 85.320 -9.0516
39.702651 85.312 -9.3674
39.990353 85.305 -9.6830
40.280140 85.298 -9.9992
40.572026 85.291 -10.3164
40.866028 85.284 -10.6343
41.162160 85.276 -10.9519
41.460438 85.267 -11.2677
41.760877 85.258 -11.5800
42.063494 85.247 -11.8872
42.368303 85.236 -12.1883
42.675322 85.225 -12.4834
42.984565 85.214 -12.7738
43.296048 85.204 -13.0617
43.609789 85.194 -13.3498
43.925804 85.185 -13.6405
44.244108 85.176 -13.9356
44.564719 85.167 -14.2361
44.887654 85.158 -14.5425
45.212928 85.148 -14.8555
45.540560 85.139 -15.1758
45.870565 85.129 -15.5039
46.202962 85.117 -15.8393
46.537768 85.105 -16.1798
46.875000 85.091 -16.5221
47.214676 85.076 -16.8618
47.556813 85.059 -17.1954
47.901429 85.043 -17.5209
48.248542 85.028 -17.8386
48.598171 85.013 -18.1507
48.950334 85.000 -18.4603
49.305048 84.989 -18.7712
49.662333 84.979 -19.0873
50.022206 84.970 -19.4113
50.384688 84.960 -19.7440
50.749796 84.950 -20.0836
51.117550 84.939 -20.4254
51.487969 84.926 -20.7634
51.861072 84.911 -21.0923
52.236879 84.896 -21.4099
52.615409 84.880 -21.7171
52.996681 84.865 -22.0166
53.380717 84.849 -22.3105
53.767536 84.832 -22.5984
54.157158 84.815 -22.8783
54.549603 84.797 -23.1489
54.944892 84.780 -23.4128
55.343045 84.765 -23.6763
55.744084 84.751 -23.9485
56.148028 84.738 -24.2368
56.554900 84.725 -24.5446
56.964720 84.711 -24.8702
57.377510 84.696 -25.2088
57.793291 84.679 -25.5555
58.212085 84.662 -25.9066
58.633914 84.644 -26.2605
59.058799 84.627 -26.6163
59.486764 84.609 -26.9719
59.917829 84.591 -27.3243
60.352019 84.574 -27.6705
60.789354 84.556 -28.0090
61.229859 84.539 -28.3405
61.673556 84.523 -28.6669
62.120468 84.505 -28.9894
62.570618 84.487 -29.3072
63.024031 84.466 -29.6183
63.480729 84.445 -29.9208
63.940736 84.421 -30.2151
64.404077 84.397 -30.5039
64.870776 84.372 -30.7914
65.340856 84.345 -31.0799
65.814343 84.318 -31.3689
66.291261 84.290 -31.6550
66.771635 84.263 -31.9360
67.255489 84.238 -32.2144
67.742850 84.216 -32.4990
68.233743 84.198 -32.8003
68.728193 84.180 -33.1233
69.226226 84.162 -33.4623
69.727867 84.142 -33.8020
70.233144 84.120 -34.1266
70.742083 84.099 -34.4310
71.254709 84.079 -34.7246
71.771050 84.060 -35.0232
72.291132 84.039 -35.3349
72.814984 84.014 -35.6528
73.342631 83.984 -35.9606
73.874102 83.951 -36.2470
74.409424 83.918 -36.5158
74.948626 83.885 -36.7821
75.491734 83.852 -37.0594
76.038779 83.817 -37.3485
76.589787 83.780 -37.6368
77.144788 83.741 -37.9086
77.703811 83.702 -38.1555
78.266885 83.667 -38.3802
78.834039 83.636 -38.5942
79.405303 83.611 -38.8127
79.980706 83.591 -39.0524
80.560280 83.574 -39.3277
81.144053 83.557 -39.6480
81.732056 83.538 -40.0132
82.324320 83.514 -40.4096
82.920876 83.484 -40.8102
83.521755 83.448 -41.1828
84.126988 83.411 -41.5009
84.736607 83.377 -41.7535
85.350643 83.351 -41.9448
85.969129 83.333 -42.0889
86.592097 83.324 -42.2014
87.219579 83.322 -42.2913
87.851608 83.322 -42.3577
88.488217 83.324 -42.3945
89.129439 83.326 -42.4020
89.775308 83.330 -42.3975
90.425856 83.335 -42.4103
91.081119 83.340 -42.4664
91.741131 83.342 -42.5825
92.405925 83.342 -42.7791
93.075536 83.338 -43.0792
93.750000 83.328 -43.4818
94.429351 83.310 -43.9532
95.113625 83.290 -44.4644
95.802858 83.270 -45.0199
96.497085 83.251 -45.6297
97.196342 83.228 -46.2717
97.900667 83.200 -46.8993
98.610096 83.168 -47.4758
99.324665 83.134 -47.9873
100.044413 83.101 -48.4369
100.769376 83.068 -48.8379
101.499592 83.036 -49.2062
102.235100 83.002 -49.5543
102.975938 82.966 -49.8896
103.722144 82.929 -50.2169
104.473757 82.892 -50.5396
105.230817 82.856 -50.8608
105.993363 82.822 -51.1837
106.761435 82.790 -51.5098
107.535072 82.760 -51.8378
108.314315 82.732 -52.1639
109.099206 82.705 -52.4846
109.889783 82.678 -52.7985
110.686090 82.650 -53.1073
111.488167 82.621 -53.4160
112.296056 82.589 -53.7317
113.109800 82.553 -54.0600
113.929440 82.514 -54.4031
114.755020 82.473 -54.7606
115.586582 82.428 -55.1312
116.424170 82.382 -55.5104
117.267827 82.334 -55.8866
118.117598 82.284 -56.2386
118.973527 82.233 -56.5378
119.835658 82.186 -56.7600
120.704037 82.145 -56.9028
121.578708 82.113 -56.9910
122.459718 82.088 -57.0592
123.347111 82.069 -57.1323
124.240935 82.050 -57.2220
125.141236 82.031 -57.3332
126.048061 82.010 -57.4665
126.961458 81.987 -57.6190
127.881473 81.963 -57.7853
128.808154 81.940 -57.9627
129.741551 81.920 -58.1534
130.681712 81.903 -58.3621
131.628686 81.888 -58.5918
132.582521 81.874 -58.8433
133.543269 81.861 -59.1149
134.510979 81.848 -59.4024
135.485701 81.834 -59.7001
136.467486 81.819 -60.0018
137.456386 81.803 -60.3019
138.452451 81.787 -60.5947
139.455735 81.770 -60.8778
140.466288 81.752 -61.1535
141.484165 81.732 -61.4283
142.509418 81.711 -61.7093
143.542100 81.688 -62.0017
144.582265 81.662 -62.3067
145.629968 81.633 -62.6217
146.685262 81.602 -62.9413
147.748204 81.569 -63.2595
148.818849 81.535 -63.5708
149.897251 81.501 -63.8715
150.983469 81.467 -64.1612
152.077557 81.433 -64.4421
153.179574 81.399 -64.7157
154.289576 81.365 -64.9813
155.407622 81.332 -65.2377
156.533770 81.301 -65.4868
157.668078 81.271 -65.7338
158.810606 81.243 -65.9841
159.961413 81.216 -66.2421
161.120559 81.188 -66.5102
162.288105 81.160 -66.7884
163.464112 81.131 -67.0738
164.648640 81.101 -67.3607
165.841752 81.070 -67.6416
167.043510 81.039 -67.9086
168.253976 81.006 -68.1553
169.473213 80.974 -68.3797
170.701286 80.941 -68.5850
171.938258 80.910 -68.7784
173.184194 80.880 -68.9681
174.439158 80.852 -69.1606
175.703216 80.824 -69.3596
176.976434 80.798 -69.5654
178.258878 80.772 -69.7762
179.550615 80.747 -69.9901
180.851713 80.721 -70.2072
182.162239 80.696 -70.4310
183.482262 80.671 -70.6661
184.811850 80.648 -70.9166
186.151073 80.627 -71.1841
187.500000 80.606 -71.4629
188.858702 80.585 -71.7399
190.227250 80.564 -71.9996
191.605715 80.540 -72.2319
192.994169 80.516 -72.4372
194.392685 80.489 -72.6247
195.801334 80.462 -72.8061
197.220191 80.435 -72.9897
198.649330 80.407 -73.1777
200.088825 80.380 -73.3679
201.538751 80.354 -73.5566
202.999184 80.329 -73.7410
204.470200 80.306 -73.9211
205.951875 80.283 -74.0996
207.444287 80.262 -74.2798
208.947514 80.240 -74.4631
210.461634 80.219 -74.6476
211.986726 80.196 -74.8291
213.522869 80.173 -75.0030
215.070144 80.150 -75.1660
216.628631 80.128 -75.3174
218.198411 80.107 -75.4592
219.779567 80.088 -75.5966
221.372180 80.073 -75.7370
222.976334 80.059 -75.8873
224.592112 80.047 -76.0514
226.219600 80.036 -76.2294
227.858880 80.024 -76.4187
229.510039 80.012 -76.6158
231.173164 79.998 -76.8172
232.848340 79.983 -77.0207
234.535655 79.967 -77.2248
236.235197 79.949 -77.4295
237.947054 79.930 -77.6351
239.671317 79.910 -77.8413
241.408074 79.890 -78.0466
243.157416 79.868 -78.2476
244.919435 79.846 -78.4398
246.694223 79.823 -78.6194
248.481871 79.801 -78.7832
250.282473 79.778 -78.9298
252.096123 79.757 -79.0590
253.922915 79.738 -79.1734
255.762945 79.721 -79.2796
257.616309 79.707 -79.3878
259.483103 79.695 -79.5083
261.363424 79.685 -79.6472
263.257372 79.674 -79.8028
265.165043 79.662 -79.9677
267.086538 79.648 -80.1321
269.021957 79.633 -80.2872
270.971401 79.618 -80.4268
272.934972 79.604 -80.5497
274.912771 79.591 -80.6592
276.904902 79.579 -80.7605
278.911469 79.570 -80.8582
280.932577 79.562 -80.9558
282.968330 79.557 -81.0572
285.018835 79.554 -81.1676
287.084199 79.553 -81.2939
289.164530 79.553 -81.4419
291.259935 79.552 -81.6114
293.370525 79.549 -81.7950
295.496408 79.543 -81.9813
297.637697 79.534 -82.1603
299.794503 79.524 -82.3266
301.966937 79.513 -82.4788
304.155114 79.501 -82.6186
306.359147 79.489 -82.7485
308.579152 79.478 -82.8715
310.815244 79.467 -82.9904
313.067539 79.456 -83.1068
315.336156 79.445 -83.2204
317.621211 79.433 -83.3283
319.922826 79.420 -83.4271
322.241118 79.408 -83.5152
324.576210 79.397 -83.5937
326.928223 79.387 -83.6657
329.297280 79.379 -83.7345
331.683504 79.371 -83.8029
334.087019 79.365 -83.8735
336.507952 79.359 -83.9479
338.946427 79.354 -84.0262
341.402572 79.349 -84.1064
343.876516 79.343 -84.1857
346.368387 79.336 -84.2617
348.878315 79.330 -84.3334
351.406431 79.323 -84.4011
353.952867 79.317 -84.4657
356.517756 79.311 -84.5280
359.101230 79.306 -84.5885
361.703426 79.301 -84.6463
364.324478 79.296 -84.7001
366.964523 79.292 -84.7489
369.623699 79.288 -84.7922
372.302145 79.284 -84.8298
375.000000 79.281 -84.8619
377.717405 79.278 -84.8895
380.454501 79.275 -84.9146
383.211431 79.273 -84.9389
385.988339 79.272 -84.9627
388.785369 79.271 -84.9852
391.602668 79.271 -85.0053
394.440383 79.271 -85.0217
397.298660 79.273 -85.0339
400.177650 79.274 -85.0424
403.077502 79.277 -85.0489
405.998368 79.279 -85.0554
408.940400 79.282 -85.0626
411.903750 79.283 -85.0688
414.888575 79.284 -85.0703
417.895028 79.285 -85.0638
420.923268 79.287 -85.0473
423.973452 79.290 -85.0214
427.045738 79.294 -84.9880
430.140287 79.300 -84.9513
433.257261 79.308 -84.9152
436.396822 79.319 -84.8821
439.559133 79.330 -84.8518
442.744360 79.343 -84.8237
445.952668 79.358 -84.7998
449.184225 79.373 -84.7847
452.439199 79.388 -84.7841
455.717760 79.403 -84.8009
459.020079 79.415 -84.8321
462.346327 79.424 -84.8679
465.696680 79.430 -84.8968
469.071310 79.436 -84.9104
472.470394 79.440 -84.9060
475.894109 79.446 -84.8864
479.342634 79.452 -84.8573
482.816148 79.459 -84.8251
486.314833 79.465 -84.7922
489.838871 79.470 -84.7548
493.388445 79.474 -84.7056
496.963741 79.479 -84.6410
500.564945 79.485 -84.5644
504.192245 79.493 -84.4832
507.845830 79.502 -84.4035
511.525890 79.513 -84.3282
515.232618 79.524 -84.2564
518.966206 79.535 -84.1842
522.726849 79.545 -84.1053
526.514743 79.555 -84.0138
530.330086 79.565 -83.9081
534.173076 79.576 -83.7922
538.043915 79.589 -83.6728
541.942803 79.603 -83.5535
545.869944 79.618 -83.4332
549.825542 79.634 -83.3098
553.809805 79.651 -83.1837
557.822939 79.670 -83.0574
561.865154 79.689 -82.9337
565.936660 79.707 -82.8128
570.037671 79.726 -82.6927
574.168399 79.744 -82.5702
578.329060 79.763 -82.4431
582.519870 79.782 -82.3106
586.741049 79.801 -82.1718
590.992817 79.819 -82.0247
595.275394 79.838 -81.8680
599.589005 79.858 -81.7034
603.933874 79.879 -81.5354
608.310228 79.901 -81.3675
612.718295 79.924 -81.2006
617.158304 79.946 -81.0318
621.630488 79.969 -80.8545
626.135079 79.991 -80.6620
630.672311 80.015 -80.4516
635.242423 80.042 -80.2281
639.845651 80.070 -79.9989
644.482237 80.101 -79.7675
649.152421 80.134 -79.5332
653.856447 80.170 -79.2970
658.594560 80.209 -79.0652
663.367008 80.250 -78.8485
668.174039 80.293 -78.6559
673.015903 80.335 -78.4873
677.892854 80.376 -78.3341
682.805145 80.415 -78.1856
687.753032 80.452 -78.0334
692.736774 80.487 -77.8716
697.756631 80.521 -77.6963
702.812863 80.555 -77.5069
707.905735 80.590 -77.3069
713.035511 80.626 -77.1005
718.202461 80.664 -76.8909
723.406852 80.702 -76.6785
728.648956 80.741 -76.4620
733.929047 80.781 -76.2404
739.247399 80.821 -76.0139
744.604290 80.862 -75.7831
750.000000 80.904 -75.5484
755.434809 80.947 -75.3106
760.909001 80.991 -75.0708
766.422861 81.036 -74.8300
771.976677 81.082 -74.5894
777.570739 81.129 -74.3503
783.205337 81.178 -74.1133
788.880766 81.228 -73.8781
794.597321 81.279 -73.6432
800.355301 81.331 -73.4082
806.155005 81.385 -73.1758
811.996736 81.440 -72.9512
817.880799 81.496 -72.7398
823.807501 81.553 -72.5445
829.777150 81.608 -72.3647
835.790057 81.661 -72.1943
841.846536 81.712 -72.0213
847.946903 81.761 -71.8341
854.091476 81.809 -71.6275
860.280575 81.858 -71.4022
866.514523 81.908 -71.1611
872.793644 81.960 -70.9073
879.118267 82.015 -70.6471
885.488720 82.073 -70.3888
891.905336 82.132 -70.1369
898.368450 82.192 -69.8904
904.878398 82.252 -69.6443
911.435520 82.314 -69.3950
918.040157 82.377 -69.1426
924.692655 82.442 -68.8902
931.393359 82.510 -68.6424
938.142619 82.580 -68.4047
944.940787 82.651 -68.1802
951.788218 82.724 -67.9688
958.685268 82.798 -67.7681
965.632296 82.871 -67.5755
972.629666 82.945 -67.3890
979.677741 83.020 -67.2076
986.776890 83.095 -67.0310
993.927482 83.170 -66.8569
1001.129891 83.246 -66.6802
1008.384491 83.323 -66.4976
1015.691660 83.402 -66.3103
1023.051781 83.484 -66.1239
1030.465236 83.570 -65.9461
1037.932411 83.659 -65.7885
1045.453698 83.750 -65.6632
1053.029486 83.842 -65.5754
1060.660172 83.933 -65.5206
1068.346153 84.021 -65.4895
1076.087829 84.106 -65.4725
1083.885605 84.189 -65.4631
1091.739887 84.271 -65.4586
1099.651084 84.350 -65.4590
1107.619609 84.428 -65.4635
1115.645878 84.505 -65.4713
1123.730308 84.580 -65.4812
1131.873321 84.653 -65.4918
1140.075341 84.725 -65.5023
1148.336797 84.797 -65.5119
1156.658119 84.868 -65.5200
1165.039741 84.938 -65.5251
1173.482099 85.009 -65.5252
1181.985634 85.081 -65.5200
1190.550789 85.154 -65.5152
1199.178011 85.230 -65.5223
1207.867749 85.307 -65.5531
1216.620457 85.384 -65.6131
1225.436590 85.458 -65.6983
1234.316609 85.528 -65.7992
1243.260976 85.594 -65.9065
1252.270157 85.657 -66.0122
1261.344623 85.716 -66.1115
1270.484846 85.773 -66.2027
1279.691303 85.827 -66.2839
1288.964474 85.880 -66.3532
1298.304842 85.931 -66.4106
1307.712894 85.982 -66.4583
1317.189120 86.032 -66.4995
1326.734016 86.082 -66.5363
1336.348077 86.131 -66.5681
1346.031806 86.180 -66.5923
1355.785708 86.228 -66.6048
1365.610290 86.277 -66.6018
1375.506065 86.326 -66.5786
1385.473549 86.376 -66.5302
1395.513261 86.429 -66.4557
1405.625726 86.485 -66.3608
1415.811469 86.545 -66.2575
1426.071023 86.609 -66.1601
1436.404921 86.674 -66.0774
1446.813703 86.739 -66.0096
1457.297912 86.803 -65.9511
1467.858093 86.865 -65.8953
1478.494798 86.924 -65.8376
1489.208581 86.980 -65.7742
1500.000000 87.033 -65.7014
1510.869618 87.083 -65.6159
1521.818002 87.128 -65.5148
1532.845723 87.169 -65.3961
1543.953355 87.207 -65.2583
1555.141477 87.243 -65.1013
1566.410674 87.279 -64.9296
1577.761531 87.318 -64.7539
1589.194642 87.358 -64.5880
1600.710601 87.401 -64.4407
1612.310010 87.442 -64.3123
1623.993473 87.483 -64.1971
1635.761599 87.522 -64.0875
1647.615002 87.558 -63.9769
1659.554299 87.594 -63.8599
1671.580114 87.629 -63.7327
1683.693072 87.663 -63.5947
1695.893807 87.698 -63.4477
1708.182952 87.733 -63.2943
1720.561150 87.768 -63.1349
1733.029045 87.801 -62.9668
1745.587288 87.833 -62.7854
1758.236533 87.865 -62.5848
1770.977440 87.897 -62.3608
1783.810673 87.932 -62.1160
1796.736900 87.972 -61.8619
1809.756796 88.016 -61.6142
1822.871040 88.063 -61.3848
1836.080315 88.112 -61.1772
1849.385310 88.163 -60.9890
1862.786718 88.213 -60.8154
1876.285239 88.263 -60.6500
1889.881575 88.314 -60.4860
1903.576436 88.367 -60.3167
1917.370535 88.423 -60.1361
1931.264593 88.484 -59.9403
1945.259332 88.551 -59.7306
1959.355483 88.625 -59.5163
1973.553781 88.706 -59.3119
1987.854965 88.790 -59.1287
2002.259781 88.877 -58.9706
2016.768981 88.964 -58.8355
2031.383320 89.051 -58.7180
2046.103561 89.137 -58.6125
2060.930471 89.222 -58.5148
2075.864823 89.306 -58.4235
2090.907395 89.388 -58.3390
2106.058972 89.469 -58.2597
2121.320344 89.548 -58.1813
2136.692305 89.624 -58.0961
2152.175658 89.699 -57.9962
2167.771210 89.774 -57.8797
2183.479774 89.851 -57.7542
2199.302169 89.930 -57.6328
2215.239219 90.011 -57.5261
2231.291755 90.093 -57.4390
2247.460615 90.175 -57.3713
2263.746641 90.255 -57.3192
2280.150683 90.335 -57.2763
2296.673595 90.413 -57.2351
2313.316238 90.491 -57.1896
2330.079481 90.571 -57.1389
2346.964198 90.654 -57.0913
2363.971268 90.739 -57.0598
2381.101578 90.826 -57.0552
2398.356022 90.914 -57.0826
2415.735498 91.000 -57.1418
2433.240913 91.085 -57.2294
2450.873180 91.167 -57.3420
2468.633217 91.246 -57.4771
2486.521951 91.321 -57.6312
2504.540314 91.392 -57.7980
2522.689246 91.459 -57.9672
2540.969692 91.522 -58.1288
2559.382606 91.583 -58.2792
2577.928947 91.644 -58.4238
2596.609683 91.704 -58.5709
2615.425787 91.764 -58.7268
2634.378241 91.821 -58.8930
2653.468031 91.877 -59.0661
2672.696154 91.929 -59.2387
2692.063613 91.979 -59.4023
2711.571415 92.028 -59.5520
2731.220579 92.078 -59.6919
2751.012130 92.130 -59.8335
2770.947098 92.184 -59.9895
2791.026522 92.239 -60.1694
2811.251451 92.293 -60.3781
2831.622938 92.345 -60.6169
2852.142045 92.393 -60.8855
2872.809842 92.437 -61.1803
2893.627406 92.474 -61.4929
2914.595823 92.505 -61.8100
2935.716186 92.530 -62.1187
2956.989596 92.550 -62.4134
2978.417161 92.566 -62.6954
3000.000000 92.579 -62.9679
3021.739237 92.589 -63.2327
3043.636005 92.594 -63.4867
3065.691446 92.594 -63.7224
3087.906710 92.591 -63.9298
3110.282955 92.585 -64.1038
3132.821347 92.579 -64.2468
3155.523062 92.573 -64.3664
3178.389283 92.567 -64.4701
3201.421202 92.562 -64.5631
3224.620020 92.555 -64.6480
3247.986946 92.548 -64.7252
3271.523198 92.538 -64.7915
3295.230004 92.526 -64.8380
3319.108599 92.512 -64.8539
3343.160228 92.498 -64.8340
3367.386145 92.487 -64.7817
3391.787613 92.479 -64.7062
3416.365904 92.476 -64.6180
3441.122300 92.476 -64.5241
3466.058091 92.480 -64.4269
3491.174576 92.488 -64.3284
3516.473066 92.501 -64.2352
3541.954880 92.517 -64.1588
3567.621345 92.536 -64.1108
3593.473800 92.556 -64.0999
3619.513592 92.575 -64.1306
3645.742080 92.591 -64.2020
3672.160630 92.601 -64.3060
3698.770620 92.604 -64.4270
3725.573436 92.599 -64.5494
3752.570477 92.589 -64.6634
3779.763150 92.572 -64.7655
3807.152872 92.548 -64.8536
3834.741071 92.518 -64.9224
3862.529185 92.482 -64.9616
3890.518664 92.440 -64.9625
3918.710966 92.395 -64.9231
3947.107561 92.349 -64.8481
3975.709929 92.303 -64.7467
4004.519563 92.257 -64.6291
4033.537962 92.211 -64.5039
4062.766641 92.163 -64.3730
4092.207123 92.112 -64.2297
4121.860942 92.059 -64.0655
4151.729646 92.003 -63.8750
4181.814790 91.945 -63.6568
4212.117944 91.885 -63.4084
4242.640687 91.822 -63.1227
4273.384610 91.759 -62.7910
4304.351317 91.697 -62.4102
4335.542421 91.637 -61.9859
4366.959549 91.582 -61.5310
4398.604338 91.531 -61.0628
4430.478438 91.486 -60.5984
4462.583511 91.443 -60.1467
4494.921231 91.402 -59.7090
4527.493283 91.362 -59.2842
4560.301365 91.322 -58.8727
4593.347189 91.280 -58.4738
4626.632476 91.236 -58.0808
4660.158962 91.189 -57.6811
4693.928395 91.140 -57.2637
4727.942535 91.090 -56.8238
4762.203156 91.041 -56.3646
4796.712043 90.993 -55.8960
4831.470996 90.947 -55.4286
4866.481826 90.901 -54.9670
4901.746360 90.854 -54.5100
4937.266434 90.806 -54.0555
4973.043902 90.754 -53.6012
5009.080628 90.699 -53.1397
5045.378492 90.638 -52.6566
5081.939384 90.573 -52.1353
5118.765212 90.506 -51.5636
5155.857894 90.438 -50.9381
5193.219366 90.372 -50.2656
5230.851574 90.309 -49.5579
5268.756481 90.249 -48.8251
5306.936062 90.193 -48.0756
5345.392309 90.139 -47.3185
5384.127225 90.087 -46.5610
5423.142830 90.033 -45.8031
5462.441159 89.978 -45.0366
5502.024259 89.920 -44.2505
5541.894195 89.861 -43.4364
5582.053045 89.801 -42.5930
5622.502902 89.743 -41.7241
5663.245876 89.687 -40.8338
5704.284090 89.633 -39.9263
5745.619684 89.582 -39.0077
5787.254813 89.532 -38.0826
5829.191647 89.482 -37.1493
5871.432373 89.432 -36.1993
5913.979192 89.381 -35.2213
5956.834323 89.331 -34.2071
6000.000000 89.284 -33.1547
6043.478473 89.240 -32.0658
6087.272010 89.200 -30.9443
6131.382892 89.165 -29.7970
6175.813420 89.136 -28.6318
6220.565910 89.112 -27.4523
6265.642695 89.091 -26.2558
6311.046124 89.074 -25.0354
6356.778566 89.063 -23.7860
6402.842404 89.058 -22.5067
6449.240040 89.060 -21.2007
6495.973891 89.071 -19.8746
6543.046396 89.092 -18.5386
6590.460007 89.122 -17.2030
6638.217197 89.160 -15.8735
6686.320456 89.208 -14.5500
6734.772290 89.264 -13.2307
6783.575226 89.330 -11.9156
6832.731809 89.407 -10.6078
6882.244600 89.494 -9.3143
6932.116181 89.592 -8.0476
6982.349153 89.702 -6.8221
7032.946133 89.822 -5.6498
7083.909760 89.953 -4.5382
7135.242690 90.096 -3.4938
7186.947600 90.251 -2.5250
7239.027185 90.418 -1.6436
7291.484160 90.600 -0.8671
7344.321260 90.794 -0.2187
7397.541239 91.001 0.2771
7451.146872 91.217 0.5995
7505.140954 91.439 0.7329
7559.526299 91.666 0.6630
7614.305743 91.893 0.3764
7669.482141 92.120 -0.1421
7725.058371 92.340 -0.9100
7781.037328 92.547 -1.9428
7837.421932 92.736 -3.2461
7894.215122 92.896 -4.8106
7951.419859 93.021 -6.6128
8009.039125 93.105 -8.6172
8067.075924 93.141 -10.7793
8125.533282 93.126 -13.0514
8184.414245 93.057 -15.3838
8243.721885 92.933 -17.7218
8303.459292 92.751 -20.0047
8363.629581 92.514 -22.1698
8424.235888 92.224 -24.1558
8485.281374 91.888 -25.9106
8546.769221 91.512 -27.3977
8608.702634 91.104 -28.5963
8671.084842 90.671 -29.4956
8733.919097 90.220 -30.0901
8797.208675 89.756 -30.3763
8860.956876 89.286 -30.3531
8925.167022 88.814 -30.0265
8989.842461 88.348 -29.4135
9054.986566 87.891 -28.5382
9120.602731 87.448 -27.4262
9186.694378 87.021 -26.1000
9253.264952 86.612 -24.5764
9320.317925 86.223 -22.8717
9387.856790 85.856 -21.0078
9455.885071 85.514 -19.0113
9524.406312 85.196 -16.9088
9593.424086 84.903 -14.7199
9662.941992 84.634 -12.4538
9732.963653 84.390 -10.1151
9803.492719 84.171 -7.7125
9874.532869 83.977 -5.2600
9946.087805 83.810 -2.7738
10018.161257 83.666 -0.2650
10090.756983 83.547 2.2625
10163.878768 83.453 4.8041
10237.530423 83.384 7.3476
10311.715789 83.342 9.8729
10386.438732 83.326 12.3581
10461.703149 83.337 14.7864
10537.512962 83.374 17.1433
10613.872125 83.437 19.4088
10690.784618 83.527 21.5537
10768.254450 83.642 23.5426
10846.285661 83.780 25.3424
10924.882318 83.936 26.9229
11004.048518 84.109 28.2525
11083.788390 84.292 29.2956
11164.106090 84.478 30.0170
11245.005805 84.659 30.3942
11326.491752 84.822 30.4242
11408.568180 84.957 30.1241
11491.239368 85.052 29.5293
11574.509626 85.097 28.6937
11658.383294 85.083 27.6951
11742.864745 85.003 26.6338
11827.958384 84.856 25.6241
11913.668646 84.643 24.7805
12000.000000 84.374 24.2069
12086.956947 84.058 23.9917
12174.544019 83.712 24.2002
12262.765784 83.353 24.8646
12351.626840 83.000 25.9722
12441.131819 82.672 27.4635
12531.285389 82.383 29.2406
12622.092249 82.143 31.1809
12713.557132 81.956 33.1500
12805.684808 81.816 35.0180
12898.480079 81.716 36.6812
12991.947783 81.639 38.0795
13086.092792 81.571 39.1987
13180.920015 81.497 40.0620
13276.434395 81.405 40.7193
13372.640911 81.286 41.2403
13469.544580 81.136 41.7061
13567.150452 80.954 42.1952
13665.463617 80.744 42.7735
13764.489200 80.511 43.4916
13864.232362 80.262 44.3851
13964.698305 80.008 45.4712
14065.892266 79.757 46.7451
14167.819519 79.519 48.1832
14270.485380 79.302 49.7500
14373.895200 79.113 51.3983
14478.054370 78.958 53.0678
14582.968320 78.839 54.6894
14688.642520 78.758 56.1935
14795.082478 78.714 57.5110
14902.293745 78.703 58.5732
15010.281908 78.719 59.3171
15119.052599 78.754 59.6913
15228.611486 78.798 59.6592
15338.964283 78.839 59.2009
15450.116741 78.863 58.3190
15562.074656 78.855 57.0425
15674.843864 78.799 55.4267
15788.430244 78.682 53.5498
15902.839718 78.494 51.5102
16018.078250 78.229 49.4200
16134.151848 77.886 47.3936
16251.066563 77.467 45.5379
16368.828491 76.981 43.9452
16487.443769 76.436 42.6875
16606.918584 75.846 41.8112
16727.259161 75.224 41.3366
16848.471777 74.583 41.2625
16970.562748 73.936 41.5665
17093.538442 73.295 42.2067
17217.405268 72.671 43.1276
17342.169684 72.071 44.2626
17467.838194 71.500 45.5360
17594.417350 70.961 46.8669
17721.913751 70.450 48.1754
17850.334044 69.962 49.3858
17979.684923 69.488 50.4334
18109.973131 69.016 51.2733
18241.205462 68.533 51.8832
18373.388756 68.023 52.2659
18506.529905 67.472 52.4551
18640.635849 66.867 52.5152
18775.713581 66.195 52.5370
18911.770141 65.449 52.6313
19048.812624 64.624 52.9170
19186.848172 63.721 53.5075
19325.883983 62.747 54.4966
19465.927305 61.723 55.9377
19606.985439 60.691 57.8040
19749.065738 59.726 59.9194
19892.175609 58.950 61.8851
20036.322514 58.508 63.1138
