* Measurement data measured by REW V5.31
* Source: EXCL: Microphone (USB Sound Device        ), MICROPHONE (Master Volume), L, volume: 0.560
* Format: 256k Log Swept Sine, 1 sweep at 0.0 dBFS with no timing reference
* Dated: Apr 18, 2024 12:12:19 PM
* REW Settings:
*  C-weighting compensation: Off
*  Target level: 75.0 dB
* Note: KZ ZS10 Pro 2 1110 L
* Measurement: L KZ ZS10 Pro 2 1110
* Smoothing: 1/12 octave
* Frequency Step: 96 ppo
* Start Frequency: 0.36621094 Hz
*
* Freq(Hz) SPL(dB) Phase(degrees)
0.366211 77.197 -171.2782
0.368865 77.198 -171.2816
0.371538 77.200 -171.2867
0.374230 77.202 -171.2931
0.376942 77.204 -171.3002
0.379673 77.206 -171.3079
0.382424 77.208 -171.3159
0.385196 77.211 -171.3241
0.387987 77.213 -171.3326
0.390798 77.216 -171.3411
0.393630 77.218 -171.3498
0.396483 77.221 -171.3586
0.399356 77.223 -171.3674
0.402250 77.226 -171.3764
0.405165 77.228 -171.3855
0.408101 77.231 -171.3947
0.411058 77.233 -171.4041
0.414037 77.236 -171.4135
0.417037 77.239 -171.4231
0.420059 77.241 -171.4329
0.423103 77.244 -171.4427
0.426169 77.247 -171.4527
0.429257 77.249 -171.4629
0.432368 77.252 -171.4732
0.435501 77.255 -171.4836
0.438656 77.258 -171.4942
0.441835 77.260 -171.5050
0.445037 77.263 -171.5160
0.448262 77.266 -171.5271
0.451510 77.269 -171.5385
0.454782 77.272 -171.5500
0.458077 77.275 -171.5618
0.461397 77.278 -171.5737
0.464740 77.281 -171.5859
0.468108 77.284 -171.5983
0.471500 77.287 -171.6109
0.474917 77.290 -171.6238
0.478358 77.293 -171.6369
0.481825 77.296 -171.6503
0.485316 77.299 -171.6640
0.488833 77.302 -171.6779
0.492375 77.305 -171.6921
0.495943 77.308 -171.7066
0.499537 77.311 -171.7215
0.503157 77.314 -171.7366
0.506803 77.318 -171.7521
0.510475 77.321 -171.7679
0.514175 77.324 -171.7841
0.517900 77.327 -171.8007
0.521653 77.331 -171.8176
0.525434 77.334 -171.8349
0.529241 77.337 -171.8527
0.533076 77.341 -171.8708
0.536939 77.344 -171.8894
0.540830 77.348 -171.9084
0.544749 77.351 -171.9279
0.548696 77.354 -171.9479
0.552673 77.358 -171.9684
0.556677 77.361 -171.9894
0.560711 77.365 -172.0110
0.564774 77.369 -172.0330
0.568867 77.372 -172.0557
0.572989 77.376 -172.0789
0.577141 77.379 -172.1028
0.581324 77.383 -172.1273
0.585536 77.387 -172.1524
0.589779 77.391 -172.1783
0.594053 77.394 -172.2048
0.598358 77.398 -172.2320
0.602694 77.402 -172.2600
0.607061 77.406 -172.2888
0.611460 77.410 -172.3184
0.615891 77.414 -172.3488
0.620354 77.417 -172.3801
0.624849 77.421 -172.4122
0.629377 77.425 -172.4453
0.633938 77.429 -172.4794
0.638532 77.433 -172.5144
0.643159 77.438 -172.5504
0.647819 77.442 -172.5876
0.652514 77.446 -172.6258
0.657242 77.450 -172.6652
0.662005 77.454 -172.7057
0.666802 77.458 -172.7475
0.671634 77.463 -172.7905
0.676501 77.467 -172.8349
0.681403 77.471 -172.8807
0.686341 77.475 -172.9278
0.691314 77.480 -172.9765
0.696324 77.484 -173.0267
0.701370 77.488 -173.0785
0.706452 77.492 -173.1321
0.711571 77.496 -173.1874
0.716728 77.499 -173.2447
0.721921 77.500 -173.3040
0.727153 77.501 -173.3657
0.732422 77.499 -173.4300
0.737729 77.495 -173.4972
0.743075 77.490 -173.5675
0.748460 77.483 -173.6412
0.753883 77.475 -173.7186
0.759346 77.466 -173.7995
0.764849 77.457 -173.8843
0.770391 77.448 -173.9727
0.775974 77.440 -174.0650
0.781597 77.431 -174.1609
0.787261 77.422 -174.2607
0.792966 77.413 -174.3641
0.798712 77.404 -174.4711
0.804500 77.394 -174.5819
0.810329 77.385 -174.6962
0.816201 77.375 -174.8141
0.822116 77.366 -174.9355
0.828073 77.355 -175.0603
0.834074 77.345 -175.1886
0.840118 77.334 -175.3203
0.846206 77.322 -175.4553
0.852338 77.310 -175.5935
0.858514 77.297 -175.7349
0.864735 77.283 -175.8794
0.871001 77.269 -176.0269
0.877313 77.253 -176.1775
0.883670 77.237 -176.3309
0.890074 77.220 -176.4871
0.896524 77.201 -176.6460
0.903020 77.181 -176.8076
0.909564 77.160 -176.9716
0.916155 77.137 -177.1381
0.922794 77.113 -177.3068
0.929481 77.087 -177.4778
0.936216 77.059 -177.6508
0.943000 77.029 -177.8257
0.949834 76.998 -178.0024
0.956717 76.964 -178.1808
0.963649 76.928 -178.3607
0.970632 76.889 -178.5419
0.977666 76.848 -178.7244
0.984750 76.804 -178.9078
0.991886 76.758 -179.0920
0.999074 76.708 -179.2769
1.006314 76.656 -179.4622
1.013606 76.600 -179.6478
1.020951 76.540 -179.8333
1.028349 76.477 179.9814
1.035801 76.411 179.7965
1.043307 76.340 179.6124
1.050867 76.265 179.4291
1.058482 76.185 179.2468
1.066152 76.101 179.0656
1.073878 76.012 178.8853
1.081660 75.917 178.7054
1.089498 75.816 178.5251
1.097393 75.707 178.3429
1.105345 75.591 178.1572
1.113355 75.467 177.9659
1.121423 75.333 177.7673
1.129549 75.189 177.5601
1.137734 75.036 177.3433
1.145979 74.873 177.1163
1.154283 74.700 176.8787
1.162647 74.518 176.6303
1.171072 74.326 176.3708
1.179558 74.127 176.1003
1.188106 73.919 175.8185
1.196715 73.703 175.5254
1.205387 73.481 175.2210
1.214122 73.251 174.9052
1.222920 73.016 174.5782
1.231782 72.776 174.2397
1.240708 72.530 173.8900
1.249699 72.281 173.5289
1.258754 72.028 173.1567
1.267876 71.773 172.7734
1.277063 71.516 172.3792
1.286318 71.257 171.9742
1.295639 70.999 171.5587
1.305027 70.741 171.1331
1.314484 70.486 170.6976
1.324009 70.232 170.2528
1.333604 69.983 169.7993
1.343268 69.738 169.3376
1.353002 69.499 168.8688
1.362806 69.268 168.3937
1.372681 69.045 167.9136
1.382628 68.831 167.4298
1.392647 68.629 166.9440
1.402739 68.439 166.4580
1.412904 68.263 165.9736
1.423142 68.102 165.4924
1.433455 67.957 165.0159
1.443843 67.829 164.5438
1.454305 67.719 164.0742
1.464844 67.627 163.6018
1.475459 67.551 163.1179
1.486150 67.492 162.6108
1.496920 67.447 162.0661
1.507767 67.417 161.4671
1.518693 67.401 160.7925
1.529698 67.398 160.0135
1.540783 67.408 159.0873
1.551948 67.431 157.9451
1.563194 67.466 156.4670
1.574521 67.514 154.4203
1.585931 67.574 151.2895
1.597423 67.645 145.6721
1.608999 67.728 132.2436
1.620658 67.822 82.6025
1.632402 67.927 18.2324
1.644232 68.043 0.4163
1.656146 68.169 -6.3536
1.668147 68.305 -9.9801
1.680235 68.451 -12.3313
1.692411 68.606 -14.0503
1.704675 68.771 -15.4150
1.717028 68.943 -16.5647
1.729470 69.124 -17.5770
1.742003 69.313 -18.4985
1.754626 69.510 -19.3588
1.767341 69.714 -20.1775
1.780147 69.925 -20.9680
1.793047 70.145 -21.7394
1.806040 70.374 -22.4974
1.819128 70.613 -23.2451
1.832310 70.865 -23.9836
1.845587 71.132 -24.7122
1.858961 71.416 -25.4298
1.872432 71.719 -26.1351
1.886001 72.039 -26.8276
1.899667 72.378 -27.5071
1.913433 72.734 -28.1738
1.927299 73.105 -28.8283
1.941265 73.490 -29.4715
1.955332 73.887 -30.1041
1.969501 74.295 -30.7273
1.983773 74.711 -31.3419
1.998148 75.133 -31.9490
2.012627 75.560 -32.5497
2.027212 75.988 -33.1448
2.041902 76.417 -33.7356
2.056698 76.843 -34.3229
2.071602 77.264 -34.9080
2.086614 77.678 -35.4917
2.101734 78.082 -36.0753
2.116964 78.475 -36.6598
2.132304 78.855 -37.2466
2.147756 79.219 -37.8368
2.163320 79.566 -38.4318
2.178996 79.897 -39.0331
2.194786 80.210 -39.6420
2.210690 80.507 -40.2594
2.226710 80.789 -40.8859
2.242845 81.058 -41.5212
2.259098 81.314 -42.1646
2.275468 81.558 -42.8148
2.291957 81.792 -43.4705
2.308566 82.016 -44.1300
2.325295 82.231 -44.7920
2.342145 82.437 -45.4551
2.359117 82.636 -46.1182
2.376212 82.828 -46.7801
2.393431 83.013 -47.4400
2.410775 83.194 -48.0972
2.428244 83.370 -48.7509
2.445840 83.542 -49.4009
2.463564 83.712 -50.0468
2.481416 83.879 -50.6887
2.499397 84.046 -51.3271
2.517509 84.211 -51.9629
2.535752 84.376 -52.5974
2.554127 84.540 -53.2326
2.572635 84.702 -53.8710
2.591277 84.862 -54.5150
2.610055 85.018 -55.1660
2.628968 85.171 -55.8246
2.648019 85.320 -56.4906
2.667208 85.464 -57.1628
2.686535 85.604 -57.8399
2.706003 85.740 -58.5200
2.725612 85.872 -59.2013
2.745363 86.000 -59.8818
2.765257 86.125 -60.5601
2.785295 86.247 -61.2340
2.805478 86.366 -61.9023
2.825808 86.483 -62.5635
2.846285 86.597 -63.2167
2.866910 86.709 -63.8612
2.887685 86.820 -64.4974
2.908611 86.928 -65.1263
2.929688 87.034 -65.7498
2.950917 87.137 -66.3704
2.972301 87.238 -66.9906
2.993839 87.335 -67.6121
3.015534 87.429 -68.2354
3.037386 87.520 -68.8603
3.059396 87.608 -69.4860
3.081565 87.693 -70.1111
3.103896 87.774 -70.7338
3.126388 87.854 -71.3523
3.149043 87.930 -71.9646
3.171862 88.005 -72.5690
3.194847 88.078 -73.1635
3.217998 88.148 -73.7466
3.241317 88.218 -74.3175
3.264805 88.285 -74.8757
3.288463 88.351 -75.4218
3.312293 88.414 -75.9570
3.336295 88.476 -76.4833
3.360471 88.535 -77.0019
3.384822 88.591 -77.5140
3.409350 88.646 -78.0200
3.434056 88.698 -78.5196
3.458940 88.747 -79.0123
3.484005 88.796 -79.4971
3.509252 88.842 -79.9730
3.534681 88.888 -80.4387
3.560295 88.933 -80.8929
3.586094 88.976 -81.3344
3.612081 89.020 -81.7620
3.638255 89.063 -82.1750
3.664620 89.105 -82.5731
3.691175 89.147 -82.9562
3.717923 89.188 -83.3251
3.744864 89.228 -83.6803
3.772001 89.267 -84.0230
3.799335 89.305 -84.3540
3.826866 89.343 -84.6741
3.854597 89.381 -84.9843
3.882529 89.419 -85.2852
3.910664 89.457 -85.5773
3.939002 89.496 -85.8609
3.967546 89.535 -86.1362
3.996296 89.576 -86.4030
4.025255 89.618 -86.6606
4.054423 89.662 -86.9084
4.083804 89.706 -87.1461
4.113396 89.751 -87.3738
4.143204 89.798 -87.5927
4.173227 89.845 -87.8041
4.203468 89.893 -88.0101
4.233928 89.943 -88.2130
4.264609 89.994 -88.4150
4.295512 90.046 -88.6180
4.326639 90.099 -88.8237
4.357992 90.154 -89.0331
4.389572 90.211 -89.2466
4.421380 90.269 -89.4637
4.453419 90.329 -89.6841
4.485691 90.391 -89.9075
4.518196 90.454 -90.1343
4.550936 90.518 -90.3658
4.583914 90.583 -90.6033
4.617131 90.650 -90.8486
4.650589 90.717 -91.1034
4.684289 90.784 -91.3695
4.718233 90.852 -91.6481
4.752424 90.920 -91.9399
4.786862 90.989 -92.2454
4.821549 91.058 -92.5640
4.856488 91.127 -92.8954
4.891680 91.196 -93.2389
4.927127 91.265 -93.5941
4.962831 91.334 -93.9606
4.998794 91.403 -94.3383
5.035017 91.470 -94.7272
5.071503 91.537 -95.1274
5.108253 91.602 -95.5397
5.145270 91.666 -95.9641
5.182555 91.728 -96.4009
5.220110 91.790 -96.8497
5.257937 91.849 -97.3096
5.296038 91.908 -97.7791
5.334415 91.964 -98.2563
5.373071 92.019 -98.7397
5.412006 92.073 -99.2280
5.451224 92.124 -99.7200
5.490725 92.173 -100.2156
5.530514 92.221 -100.7148
5.570590 92.266 -101.2178
5.610957 92.309 -101.7241
5.651616 92.350 -102.2327
5.692570 92.390 -102.7421
5.733821 92.428 -103.2502
5.775370 92.464 -103.7554
5.817221 92.499 -104.2562
5.859375 92.532 -104.7518
5.901834 92.564 -105.2419
5.944602 92.594 -105.7267
5.987679 92.623 -106.2062
6.031068 92.651 -106.6801
6.074771 92.678 -107.1478
6.118792 92.705 -107.6088
6.163131 92.731 -108.0621
6.207792 92.757 -108.5071
6.252776 92.782 -108.9436
6.298086 92.808 -109.3715
6.343725 92.834 -109.7913
6.389694 92.860 -110.2038
6.435996 92.887 -110.6100
6.482634 92.914 -111.0109
6.529610 92.943 -111.4072
6.576926 92.972 -111.7994
6.624585 93.002 -112.1880
6.672590 93.034 -112.5731
6.720942 93.066 -112.9557
6.769645 93.100 -113.3369
6.818700 93.135 -113.7185
6.868111 93.172 -114.1019
6.917881 93.209 -114.4884
6.968010 93.247 -114.8792
7.018504 93.287 -115.2747
7.069362 93.328 -115.6753
7.120590 93.369 -116.0814
7.172189 93.412 -116.4937
7.224161 93.454 -116.9128
7.276511 93.497 -117.3396
7.329239 93.540 -117.7745
7.382350 93.584 -118.2177
7.435845 93.627 -118.6691
7.489729 93.669 -119.1279
7.544002 93.712 -119.5936
7.598669 93.754 -120.0654
7.653732 93.795 -120.5427
7.709194 93.835 -121.0251
7.765058 93.874 -121.5120
7.821327 93.912 -122.0026
7.878004 93.948 -122.4958
7.935091 93.984 -122.9902
7.992592 94.019 -123.4843
8.050510 94.052 -123.9769
8.108847 94.085 -124.4672
8.167607 94.116 -124.9547
8.226793 94.146 -125.4385
8.286408 94.175 -125.9177
8.346454 94.204 -126.3914
8.406936 94.232 -126.8586
8.467856 94.260 -127.3190
8.529218 94.287 -127.7722
8.591024 94.314 -128.2184
8.653278 94.341 -128.6578
8.715983 94.368 -129.0904
8.779143 94.395 -129.5166
8.842760 94.423 -129.9366
8.906839 94.451 -130.3510
8.971381 94.480 -130.7604
9.036392 94.509 -131.1659
9.101873 94.539 -131.5684
9.167829 94.569 -131.9688
9.234263 94.600 -132.3678
9.301178 94.632 -132.7660
9.368578 94.663 -133.1641
9.436467 94.695 -133.5629
9.504847 94.727 -133.9630
9.573723 94.759 -134.3648
9.643099 94.790 -134.7686
9.712976 94.821 -135.1742
9.783361 94.849 -135.5815
9.854255 94.875 -135.9904
9.925663 94.898 -136.4005
9.997588 94.917 -136.8113
10.070035 94.934 -137.2224
10.143007 94.948 -137.6328
10.216507 94.960 -138.0419
10.290540 94.969 -138.4487
10.365109 94.976 -138.8528
10.440219 94.981 -139.2536
10.515873 94.984 -139.6503
10.592076 94.986 -140.0424
10.668830 94.988 -140.4294
10.746141 94.988 -140.8112
10.824012 94.988 -141.1877
10.902447 94.988 -141.5590
10.981451 94.987 -141.9254
11.061027 94.986 -142.2870
11.141180 94.985 -142.6443
11.221913 94.983 -142.9980
11.303232 94.982 -143.3488
11.385140 94.981 -143.6972
11.467641 94.979 -144.0439
11.550741 94.978 -144.3897
11.634442 94.977 -144.7351
11.718750 94.976 -145.0807
11.803669 94.975 -145.4270
11.889203 94.974 -145.7743
11.975357 94.973 -146.1228
12.062136 94.973 -146.4727
12.149543 94.972 -146.8241
12.237583 94.971 -147.1769
12.326262 94.969 -147.5311
12.415583 94.968 -147.8865
12.505552 94.965 -148.2430
12.596172 94.962 -148.6005
12.687449 94.959 -148.9589
12.779387 94.954 -149.3182
12.871992 94.950 -149.6785
12.965268 94.945 -150.0396
13.059220 94.939 -150.4019
13.153852 94.934 -150.7654
13.249170 94.928 -151.1302
13.345179 94.922 -151.4968
13.441884 94.916 -151.8651
13.539289 94.910 -152.2352
13.637401 94.904 -152.6072
13.736223 94.897 -152.9810
13.835761 94.890 -153.3566
13.936021 94.883 -153.7336
14.037007 94.875 -154.1119
14.138725 94.866 -154.4909
14.241180 94.857 -154.8704
14.344377 94.848 -155.2499
14.448323 94.838 -155.6290
14.553021 94.827 -156.0074
14.658478 94.817 -156.3851
14.764700 94.806 -156.7617
14.871691 94.796 -157.1374
14.979457 94.785 -157.5123
15.088005 94.775 -157.8867
15.197339 94.766 -158.2607
15.307465 94.757 -158.6351
15.418389 94.748 -159.0099
15.530117 94.739 -159.3855
15.642655 94.730 -159.7622
15.756008 94.722 -160.1401
15.870182 94.713 -160.5191
15.985184 94.705 -160.8990
16.101019 94.696 -161.2794
16.217694 94.688 -161.6597
16.335214 94.679 -162.0396
16.453586 94.670 -162.4181
16.572815 94.661 -162.7948
16.692909 94.652 -163.1691
16.813872 94.643 -163.5405
16.935713 94.635 -163.9087
17.058436 94.627 -164.2738
17.182048 94.619 -164.6356
17.306556 94.612 -164.9945
17.431967 94.605 -165.3507
17.558286 94.599 -165.7046
17.685521 94.592 -166.0565
17.813677 94.585 -166.4067
17.942762 94.579 -166.7552
18.072783 94.572 -167.1023
18.203746 94.565 -167.4476
18.335658 94.557 -167.7909
18.468526 94.550 -168.1317
18.602356 94.541 -168.4697
18.737156 94.533 -168.8043
18.872934 94.524 -169.1351
19.009695 94.515 -169.4622
19.147447 94.506 -169.7852
19.286197 94.497 -170.1043
19.425953 94.488 -170.4200
19.566721 94.478 -170.7325
19.708510 94.468 -171.0426
19.851326 94.458 -171.3506
19.995177 94.448 -171.6573
20.140070 94.437 -171.9629
20.286013 94.425 -172.2678
20.433014 94.413 -172.5721
20.581080 94.401 -172.8758
20.730219 94.388 -173.1789
20.880439 94.374 -173.4813
21.031747 94.360 -173.7828
21.184152 94.345 -174.0836
21.337661 94.331 -174.3837
21.492282 94.316 -174.6833
21.648024 94.301 -174.9829
21.804895 94.286 -175.2830
21.962902 94.270 -175.5839
22.122054 94.255 -175.8861
22.282360 94.239 -176.1901
22.443827 94.223 -176.4959
22.606464 94.206 -176.8037
22.770280 94.189 -177.1133
22.935283 94.171 -177.4243
23.101481 94.153 -177.7361
23.268884 94.135 -178.0484
23.437500 94.116 -178.3604
23.607338 94.096 -178.6716
23.778406 94.076 -178.9814
23.950714 94.056 -179.2896
24.124271 94.036 -179.5957
24.299086 94.015 -179.8995
24.475167 93.994 179.7994
24.652524 93.974 179.5013
24.831166 93.953 179.2067
25.011103 93.933 178.9160
25.192344 93.913 178.6298
25.374898 93.893 178.3486
25.558775 93.874 178.0729
25.743984 93.855 177.8026
25.930536 93.837 177.5377
26.118439 93.820 177.2771
26.307704 93.804 177.0197
26.498341 93.789 176.7635
26.690359 93.775 176.5065
26.883768 93.762 176.2466
27.078579 93.749 175.9822
27.274801 93.736 175.7121
27.472446 93.723 175.4363
27.671522 93.709 175.1555
27.872042 93.693 174.8716
28.074014 93.676 174.5871
28.277450 93.657 174.3047
28.482360 93.636 174.0271
28.688755 93.614 173.7562
28.896645 93.591 173.4929
29.106042 93.567 173.2371
29.316957 93.542 172.9880
29.529400 93.518 172.7439
29.743382 93.493 172.5031
29.958915 93.469 172.2640
30.176009 93.444 172.0258
30.394677 93.419 171.7877
30.614929 93.394 171.5498
30.836778 93.369 171.3124
31.060234 93.343 171.0754
31.285309 93.317 170.8387
31.512015 93.292 170.6016
31.740364 93.266 170.3633
31.970368 93.240 170.1232
32.202039 93.214 169.8808
32.435388 93.188 169.6364
32.670428 93.162 169.3906
32.907171 93.136 169.1447
33.145630 93.109 168.8997
33.385817 93.082 168.6567
33.627745 93.055 168.4160
33.871425 93.029 168.1775
34.116871 93.003 167.9406
34.364096 92.977 167.7045
34.613113 92.951 167.4689
34.863934 92.926 167.2335
35.116572 92.900 166.9987
35.371041 92.875 166.7650
35.627354 92.849 166.5328
35.885525 92.822 166.3028
36.145566 92.796 166.0749
36.407492 92.769 165.8491
36.671316 92.742 165.6253
36.937051 92.714 165.4036
37.204712 92.685 165.1844
37.474313 92.656 164.9684
37.745867 92.626 164.7562
38.019389 92.596 164.5484
38.294893 92.565 164.3452
38.572394 92.534 164.1463
38.851905 92.502 163.9511
39.133442 92.471 163.7592
39.417019 92.439 163.5701
39.702651 92.407 163.3835
39.990353 92.375 163.1996
40.280140 92.343 163.0178
40.572026 92.312 162.8372
40.866028 92.281 162.6564
41.162160 92.250 162.4736
41.460438 92.219 162.2882
41.760877 92.187 162.1003
42.063494 92.155 161.9120
42.368303 92.122 161.7264
42.675322 92.088 161.5468
42.984565 92.054 161.3751
43.296048 92.020 161.2113
43.609789 91.987 161.0526
43.925804 91.955 160.8953
44.244108 91.924 160.7359
44.564719 91.893 160.5731
44.887654 91.861 160.4084
45.212928 91.828 160.2454
45.540560 91.795 160.0878
45.870565 91.762 159.9377
46.202962 91.729 159.7938
46.537768 91.698 159.6515
46.875000 91.668 159.5051
47.214676 91.639 159.3494
47.556813 91.610 159.1826
47.901429 91.579 159.0070
48.248542 91.547 158.8274
48.598171 91.512 158.6503
48.950334 91.477 158.4805
49.305048 91.440 158.3206
49.662333 91.404 158.1698
50.022206 91.368 158.0254
50.384688 91.332 157.8837
50.749796 91.297 157.7418
51.117550 91.262 157.5986
51.487969 91.226 157.4555
51.861072 91.189 157.3155
52.236879 91.151 157.1824
52.615409 91.112 157.0593
52.996681 91.074 156.9473
53.380717 91.037 156.8452
53.767536 91.001 156.7506
54.157158 90.966 156.6603
54.549603 90.932 156.5720
54.944892 90.899 156.4844
55.343045 90.867 156.3964
55.744084 90.835 156.3073
56.148028 90.805 156.2155
56.554900 90.775 156.1189
56.964720 90.745 156.0149
57.377510 90.715 155.9016
57.793291 90.683 155.7790
58.212085 90.650 155.6503
58.633914 90.613 155.5221
59.058799 90.574 155.4026
59.486764 90.533 155.2970
59.917829 90.491 155.2050
60.352019 90.450 155.1201
60.789354 90.409 155.0343
61.229859 90.368 154.9426
61.673556 90.325 154.8466
62.120468 90.280 154.7529
62.570618 90.234 154.6683
63.024031 90.188 154.5962
63.480729 90.144 154.5355
63.940736 90.101 154.4822
64.404077 90.060 154.4325
64.870776 90.022 154.3833
65.340856 89.987 154.3319
65.814343 89.954 154.2759
66.291261 89.923 154.2152
66.771635 89.893 154.1542
67.255489 89.863 154.1014
67.742850 89.836 154.0631
68.233743 89.812 154.0369
68.728193 89.792 154.0103
69.226226 89.776 153.9675
69.727867 89.761 153.8981
70.233144 89.745 153.8000
70.742083 89.726 153.6760
71.254709 89.702 153.5301
71.771050 89.671 153.3697
72.291132 89.632 153.2100
72.814984 89.585 153.0726
73.342631 89.531 152.9771
73.874102 89.475 152.9321
74.409424 89.421 152.9329
74.948626 89.371 152.9636
75.491734 89.328 153.0020
76.038779 89.290 153.0258
76.589787 89.257 153.0198
77.144788 89.225 152.9807
77.703811 89.193 152.9165
78.266885 89.159 152.8400
78.834039 89.124 152.7612
79.405303 89.089 152.6857
79.980706 89.053 152.6140
80.560280 89.017 152.5446
81.144053 88.981 152.4744
81.732056 88.944 152.4002
82.324320 88.906 152.3209
82.920876 88.865 152.2384
83.521755 88.822 152.1569
84.126988 88.777 152.0809
84.736607 88.730 152.0132
85.350643 88.682 151.9557
85.969129 88.633 151.9097
86.592097 88.584 151.8762
87.219579 88.536 151.8546
87.851608 88.488 151.8439
88.488217 88.441 151.8434
89.129439 88.394 151.8524
89.775308 88.349 151.8705
90.425856 88.304 151.8960
91.081119 88.261 151.9260
91.741131 88.218 151.9571
92.405925 88.177 151.9866
93.075536 88.137 152.0126
93.750000 88.098 152.0341
94.429351 88.059 152.0537
95.113625 88.021 152.0784
95.802858 87.983 152.1154
96.497085 87.947 152.1674
97.196342 87.912 152.2324
97.900667 87.880 152.3066
98.610096 87.848 152.3856
99.324665 87.816 152.4635
100.044413 87.783 152.5342
100.769376 87.749 152.5937
101.499592 87.713 152.6410
102.235100 87.675 152.6776
102.975938 87.635 152.7062
103.722144 87.596 152.7286
104.473757 87.557 152.7468
105.230817 87.520 152.7631
105.993363 87.484 152.7811
106.761435 87.450 152.8051
107.535072 87.416 152.8387
108.314315 87.383 152.8829
109.099206 87.348 152.9337
109.889783 87.312 152.9823
110.686090 87.273 153.0189
111.488167 87.231 153.0375
112.296056 87.187 153.0366
113.109800 87.141 153.0190
113.929440 87.097 152.9923
114.755020 87.056 152.9672
115.586582 87.022 152.9545
116.424170 86.995 152.9583
117.267827 86.976 152.9724
118.117598 86.959 152.9868
118.973527 86.938 153.0064
119.835658 86.904 153.0638
120.704037 86.858 153.2032
121.578708 86.803 153.4398
122.459718 86.746 153.7443
123.347111 86.692 154.0663
124.240935 86.642 154.3630
125.141236 86.598 154.6072
126.048061 86.558 154.7897
126.961458 86.523 154.9167
127.881473 86.491 155.0072
128.808154 86.462 155.0856
129.741551 86.433 155.1731
130.681712 86.405 155.2802
131.628686 86.378 155.4066
132.582521 86.350 155.5440
133.543269 86.322 155.6803
134.510979 86.294 155.8041
135.485701 86.265 155.9102
136.467486 86.235 155.9999
137.456386 86.206 156.0767
138.452451 86.177 156.1442
139.455735 86.147 156.2075
140.466288 86.116 156.2722
141.484165 86.084 156.3406
142.509418 86.050 156.4116
143.542100 86.016 156.4816
144.582265 85.980 156.5481
145.629968 85.944 156.6116
146.685262 85.907 156.6754
147.748204 85.870 156.7427
148.818849 85.832 156.8154
149.897251 85.793 156.8943
150.983469 85.752 156.9816
152.077557 85.707 157.0834
153.179574 85.661 157.2070
154.289576 85.614 157.3549
155.407622 85.568 157.5226
156.533770 85.526 157.7026
157.668078 85.487 157.8871
158.810606 85.452 158.0698
159.961413 85.418 158.2456
161.120559 85.386 158.4124
162.288105 85.354 158.5703
163.464112 85.321 158.7214
164.648640 85.286 158.8691
165.841752 85.249 159.0176
167.043510 85.211 159.1716
168.253976 85.172 159.3355
169.473213 85.133 159.5118
170.701286 85.095 159.7002
171.938258 85.058 159.8984
173.184194 85.023 160.1034
174.439158 84.989 160.3125
175.703216 84.956 160.5245
176.976434 84.925 160.7389
178.258878 84.894 160.9561
179.550615 84.865 161.1789
180.851713 84.836 161.4125
182.162239 84.809 161.6644
183.482262 84.783 161.9396
184.811850 84.759 162.2361
186.151073 84.737 162.5399
187.500000 84.716 162.8235
188.858702 84.697 163.0557
190.227250 84.676 163.2231
191.605715 84.653 163.3372
192.994169 84.630 163.4217
194.392685 84.606 163.4996
195.801334 84.584 163.5865
197.220191 84.561 163.6906
198.649330 84.539 163.8129
200.088825 84.516 163.9503
201.538751 84.493 164.0975
202.999184 84.471 164.2496
204.470200 84.449 164.4022
205.951875 84.428 164.5515
207.444287 84.406 164.6947
208.947514 84.382 164.8308
210.461634 84.357 164.9613
211.986726 84.329 165.0906
213.522869 84.299 165.2244
215.070144 84.268 165.3689
216.628631 84.235 165.5288
218.198411 84.201 165.7056
219.779567 84.168 165.8970
221.372180 84.136 166.0978
222.976334 84.105 166.3026
224.592112 84.075 166.5081
226.219600 84.047 166.7134
227.858880 84.019 166.9194
229.510039 83.991 167.1271
231.173164 83.964 167.3367
232.848340 83.936 167.5476
234.535655 83.909 167.7585
236.235197 83.881 167.9675
237.947054 83.852 168.1738
239.671317 83.823 168.3779
241.408074 83.793 168.5814
243.157416 83.762 168.7873
244.919435 83.730 168.9990
246.694223 83.697 169.2202
248.481871 83.664 169.4539
250.282473 83.631 169.7019
252.096123 83.600 169.9650
253.922915 83.570 170.2411
255.762945 83.543 170.5249
257.616309 83.519 170.8075
259.483103 83.497 171.0800
261.363424 83.476 171.3372
263.257372 83.456 171.5802
265.165043 83.434 171.8157
267.086538 83.411 172.0523
269.021957 83.387 172.2971
270.971401 83.363 172.5537
272.934972 83.340 172.8219
274.912771 83.317 173.0989
276.904902 83.296 173.3817
278.911469 83.275 173.6685
280.932577 83.257 173.9579
282.968330 83.241 174.2469
285.018835 83.227 174.5294
287.084199 83.215 174.7983
289.164530 83.204 175.0479
291.259935 83.192 175.2771
293.370525 83.178 175.4913
295.496408 83.161 175.7000
297.637697 83.141 175.9125
299.794503 83.120 176.1349
301.966937 83.097 176.3687
304.155114 83.074 176.6124
306.359147 83.051 176.8632
308.579152 83.029 177.1180
310.815244 83.006 177.3749
313.067539 82.984 177.6330
315.336156 82.961 177.8937
317.621211 82.938 178.1604
319.922826 82.914 178.4373
322.241118 82.891 178.7260
324.576210 82.868 179.0251
326.928223 82.846 179.3309
329.297280 82.826 179.6397
331.683504 82.807 179.9482
334.087019 82.788 -179.7462
336.507952 82.770 -179.4453
338.946427 82.752 -179.1498
341.402572 82.734 -178.8586
343.876516 82.715 -178.5692
346.368387 82.696 -178.2784
348.878315 82.677 -177.9843
351.406431 82.658 -177.6859
353.952867 82.639 -177.3835
356.517756 82.620 -177.0779
359.101230 82.601 -176.7698
361.703426 82.582 -176.4596
364.324478 82.564 -176.1472
366.964523 82.546 -175.8320
369.623699 82.527 -175.5132
372.302145 82.509 -175.1908
375.000000 82.492 -174.8651
377.717405 82.474 -174.5369
380.454501 82.457 -174.2066
383.211431 82.440 -173.8752
385.988339 82.423 -173.5433
388.785369 82.407 -173.2110
391.602668 82.391 -172.8774
394.440383 82.375 -172.5417
397.298660 82.360 -172.2036
400.177650 82.345 -171.8637
403.077502 82.331 -171.5238
405.998368 82.316 -171.1860
408.940400 82.302 -170.8509
411.903750 82.288 -170.5161
414.888575 82.274 -170.1775
417.895028 82.259 -169.8311
420.923268 82.245 -169.4740
423.973452 82.232 -169.1063
427.045738 82.220 -168.7303
430.140287 82.209 -168.3508
433.257261 82.200 -167.9720
436.396822 82.192 -167.5966
439.559133 82.186 -167.2241
442.744360 82.180 -166.8544
445.952668 82.175 -166.4899
449.184225 82.172 -166.1360
452.439199 82.169 -165.7999
455.717760 82.165 -165.4852
459.020079 82.158 -165.1876
462.346327 82.148 -164.8955
465.696680 82.136 -164.5968
469.071310 82.121 -164.2841
472.470394 82.106 -163.9557
475.894109 82.091 -163.6142
479.342634 82.077 -163.2643
482.816148 82.063 -162.9113
486.314833 82.050 -162.5571
489.838871 82.036 -162.1981
493.388445 82.021 -161.8268
496.963741 82.006 -161.4396
500.564945 81.992 -161.0397
504.192245 81.980 -160.6346
507.845830 81.969 -160.2314
511.525890 81.959 -159.8333
515.232618 81.948 -159.4396
518.966206 81.938 -159.0465
522.726849 81.926 -158.6491
526.514743 81.915 -158.2430
530.330086 81.904 -157.8267
534.173076 81.894 -157.4028
538.043915 81.885 -156.9758
541.942803 81.876 -156.5475
545.869944 81.869 -156.1163
549.825542 81.861 -155.6812
553.809805 81.855 -155.2444
557.822939 81.850 -154.8103
561.865154 81.845 -154.3819
565.936660 81.840 -153.9587
570.037671 81.836 -153.5369
574.168399 81.830 -153.1116
578.329060 81.825 -152.6798
582.519870 81.819 -152.2413
586.741049 81.813 -151.7966
590.992817 81.807 -151.3441
595.275394 81.801 -150.8823
599.589005 81.796 -150.4122
603.933874 81.792 -149.9385
608.310228 81.788 -149.4653
612.718295 81.785 -148.9940
617.158304 81.782 -148.5214
621.630488 81.778 -148.0399
626.135079 81.775 -147.5422
630.672311 81.773 -147.0261
635.242423 81.773 -146.4968
639.845651 81.775 -145.9619
644.482237 81.779 -145.4245
649.152421 81.784 -144.8845
653.856447 81.792 -144.3436
658.594560 81.803 -143.8083
663.367008 81.817 -143.2881
668.174039 81.832 -142.7906
673.015903 81.846 -142.3148
677.892854 81.859 -141.8530
682.805145 81.870 -141.3961
687.753032 81.878 -140.9370
692.736774 81.884 -140.4705
697.756631 81.889 -139.9921
702.812863 81.894 -139.4999
707.905735 81.899 -138.9958
713.035511 81.906 -138.4839
718.202461 81.913 -137.9673
723.406852 81.921 -137.4470
728.648956 81.930 -136.9225
733.929047 81.939 -136.3926
739.247399 81.949 -135.8564
744.604290 81.960 -135.3135
750.000000 81.971 -134.7638
755.434809 81.983 -134.2076
760.909001 81.996 -133.6456
766.422861 82.010 -133.0787
771.976677 82.025 -132.5081
777.570739 82.042 -131.9349
783.205337 82.059 -131.3610
788.880766 82.078 -130.7864
794.597321 82.099 -130.2104
800.355301 82.122 -129.6324
806.155005 82.147 -129.0554
811.996736 82.176 -128.4866
817.880799 82.208 -127.9362
823.807501 82.241 -127.4137
829.777150 82.273 -126.9245
835.790057 82.301 -126.4631
841.846536 82.324 -126.0101
847.946903 82.342 -125.5410
854.091476 82.357 -125.0402
860.280575 82.372 -124.5073
866.514523 82.388 -123.9508
872.793644 82.406 -123.3777
879.118267 82.425 -122.7920
885.488720 82.446 -122.1947
891.905336 82.468 -121.5848
898.368450 82.492 -120.9614
904.878398 82.519 -120.3269
911.435520 82.551 -119.6885
918.040157 82.586 -119.0554
924.692655 82.625 -118.4341
931.393359 82.666 -117.8281
938.142619 82.710 -117.2388
944.940787 82.754 -116.6656
951.788218 82.799 -116.1054
958.685268 82.844 -115.5541
965.632296 82.889 -115.0077
972.629666 82.934 -114.4625
979.677741 82.979 -113.9172
986.776890 83.025 -113.3722
993.927482 83.071 -112.8270
1001.129891 83.117 -112.2781
1008.384491 83.165 -111.7216
1015.691660 83.215 -111.1574
1023.051781 83.267 -110.5895
1030.465236 83.324 -110.0250
1037.932411 83.385 -109.4760
1045.453698 83.449 -108.9547
1053.029486 83.514 -108.4672
1060.660172 83.578 -108.0097
1068.346153 83.640 -107.5735
1076.087829 83.699 -107.1488
1083.885605 83.757 -106.7292
1091.739887 83.814 -106.3130
1099.651084 83.870 -105.9005
1107.619609 83.925 -105.4916
1115.645878 83.979 -105.0844
1123.730308 84.032 -104.6769
1131.873321 84.085 -104.2674
1140.075341 84.137 -103.8549
1148.336797 84.189 -103.4393
1156.658119 84.240 -103.0206
1165.039741 84.292 -102.5980
1173.482099 84.345 -102.1699
1181.985634 84.400 -101.7362
1190.550789 84.458 -101.3029
1199.178011 84.519 -100.8812
1207.867749 84.582 -100.4831
1216.620457 84.645 -100.1148
1225.436590 84.707 -99.7727
1234.316609 84.767 -99.4479
1243.260976 84.823 -99.1306
1252.270157 84.876 -98.8124
1261.344623 84.926 -98.4891
1270.484846 84.975 -98.1593
1279.691303 85.023 -97.8219
1288.964474 85.069 -97.4755
1298.304842 85.115 -97.1208
1307.712894 85.161 -96.7607
1317.189120 85.207 -96.3984
1326.734016 85.253 -96.0359
1336.348077 85.299 -95.6722
1346.031806 85.345 -95.3042
1355.785708 85.392 -94.9278
1365.610290 85.438 -94.5392
1375.506065 85.486 -94.1336
1385.473549 85.536 -93.7057
1395.513261 85.589 -93.2544
1405.625726 85.646 -92.7852
1415.811469 85.707 -92.3099
1426.071023 85.772 -91.8436
1436.404921 85.839 -91.3959
1446.813703 85.906 -90.9674
1457.297912 85.971 -90.5529
1467.858093 86.035 -90.1458
1478.494798 86.097 -89.7408
1489.208581 86.156 -89.3339
1500.000000 86.212 -88.9212
1510.869618 86.265 -88.4995
1521.818002 86.313 -88.0656
1532.845723 86.357 -87.6162
1543.953355 86.399 -87.1492
1555.141477 86.439 -86.6639
1566.410674 86.480 -86.1646
1577.761531 86.523 -85.6625
1589.194642 86.569 -85.1722
1600.710601 86.616 -84.7034
1612.310010 86.664 -84.2573
1623.993473 86.711 -83.8295
1635.761599 86.757 -83.4132
1647.615002 86.802 -83.0033
1659.554299 86.846 -82.5961
1671.580114 86.890 -82.1893
1683.693072 86.934 -81.7826
1695.893807 86.977 -81.3781
1708.182952 87.020 -80.9772
1720.561150 87.061 -80.5790
1733.029045 87.100 -80.1791
1745.587288 87.136 -79.7713
1758.236533 87.171 -79.3478
1770.977440 87.204 -78.9022
1783.810673 87.239 -78.4343
1796.736900 87.277 -77.9534
1809.756796 87.319 -77.4741
1822.871040 87.364 -77.0076
1836.080315 87.410 -76.5576
1849.385310 87.457 -76.1223
1862.786718 87.505 -75.6978
1876.285239 87.553 -75.2792
1889.881575 87.601 -74.8611
1903.576436 87.651 -74.4380
1917.370535 87.705 -74.0046
1931.264593 87.764 -73.5577
1945.259332 87.828 -73.0983
1959.355483 87.899 -72.6355
1973.553781 87.977 -72.1835
1987.854965 88.058 -71.7535
2002.259781 88.141 -71.3498
2016.768981 88.224 -70.9698
2031.383320 88.306 -70.6083
2046.103561 88.387 -70.2587
2060.930471 88.466 -69.9163
2075.864823 88.543 -69.5792
2090.907395 88.618 -69.2469
2106.058972 88.691 -68.9176
2121.320344 88.761 -68.5862
2136.692305 88.827 -68.2446
2152.175658 88.892 -67.8839
2167.771210 88.955 -67.5009
2183.479774 89.019 -67.1024
2199.302169 89.085 -66.7004
2215.239219 89.152 -66.3045
2231.291755 89.219 -65.9189
2247.460615 89.285 -65.5425
2263.746641 89.350 -65.1698
2280.150683 89.412 -64.7921
2296.673595 89.473 -64.3994
2313.316238 89.532 -63.9830
2330.079481 89.593 -63.5396
2346.964198 89.657 -63.0751
2363.971268 89.723 -62.6002
2381.101578 89.792 -62.1226
2398.356022 89.863 -61.6437
2415.735498 89.936 -61.1597
2433.240913 90.009 -60.6638
2450.873180 90.084 -60.1499
2468.633217 90.163 -59.6143
2486.521951 90.246 -59.0547
2504.540314 90.334 -58.4692
2522.689246 90.431 -57.8571
2540.969692 90.539 -57.2239
2559.382606 90.661 -56.5891
2577.928947 90.799 -55.9860
2596.609683 90.952 -55.4531
2615.425787 91.116 -55.0243
2634.378241 91.287 -54.7216
2653.468031 91.458 -54.5521
2672.696154 91.627 -54.5083
2692.063613 91.788 -54.5711
2711.571415 91.940 -54.7181
2731.220579 92.083 -54.9318
2751.012130 92.217 -55.2005
2770.947098 92.342 -55.5154
2791.026522 92.458 -55.8676
2811.251451 92.564 -56.2483
2831.622938 92.662 -56.6502
2852.142045 92.751 -57.0687
2872.809842 92.833 -57.5007
2893.627406 92.905 -57.9409
2914.595823 92.971 -58.3817
2935.716186 93.029 -58.8165
2956.989596 93.083 -59.2463
2978.417161 93.132 -59.6774
3000.000000 93.176 -60.1177
3021.739237 93.215 -60.5717
3043.636005 93.247 -61.0381
3065.691446 93.272 -61.5095
3087.906710 93.289 -61.9756
3110.282955 93.299 -62.4301
3132.821347 93.304 -62.8740
3155.523062 93.304 -63.3125
3178.389283 93.298 -63.7509
3201.421202 93.286 -64.1913
3224.620020 93.266 -64.6334
3247.986946 93.237 -65.0743
3271.523198 93.198 -65.5063
3295.230004 93.147 -65.9147
3319.108599 93.085 -66.2808
3343.160228 93.013 -66.5886
3367.386145 92.932 -66.8285
3391.787613 92.845 -66.9949
3416.365904 92.753 -67.0828
3441.122300 92.657 -67.0847
3466.058091 92.559 -66.9905
3491.174576 92.462 -66.7937
3516.473066 92.369 -66.4982
3541.954880 92.284 -66.1187
3567.621345 92.208 -65.6769
3593.473800 92.143 -65.1966
3619.513592 92.087 -64.7001
3645.742080 92.040 -64.2059
3672.160630 91.998 -63.7233
3698.770620 91.959 -63.2521
3725.573436 91.923 -62.7891
3752.570477 91.889 -62.3347
3779.763150 91.857 -61.8929
3807.152872 91.823 -61.4668
3834.741071 91.788 -61.0536
3862.529185 91.749 -60.6439
3890.518664 91.708 -60.2278
3918.710966 91.664 -59.8012
3947.107561 91.619 -59.3663
3975.709929 91.574 -58.9288
4004.519563 91.528 -58.4956
4033.537962 91.480 -58.0718
4062.766641 91.429 -57.6561
4092.207123 91.374 -57.2396
4121.860942 91.313 -56.8115
4151.729646 91.248 -56.3651
4181.814790 91.178 -55.8969
4212.117944 91.103 -55.4022
4242.640687 91.022 -54.8696
4273.384610 90.935 -54.2843
4304.351317 90.844 -53.6347
4335.542421 90.751 -52.9160
4366.959549 90.658 -52.1295
4398.604338 90.566 -51.2809
4430.478438 90.476 -50.3761
4462.583511 90.388 -49.4152
4494.921231 90.304 -48.3917
4527.493283 90.223 -47.3003
4560.301365 90.149 -46.1403
4593.347189 90.083 -44.9143
4626.632476 90.027 -43.6226
4660.158962 89.982 -42.2646
4693.928395 89.954 -40.8462
4727.942535 89.944 -39.3859
4762.203156 89.957 -37.9163
4796.712043 89.994 -36.4814
4831.470996 90.052 -35.1280
4866.481826 90.130 -33.8956
4901.746360 90.222 -32.8140
4937.266434 90.322 -31.9048
4973.043902 90.423 -31.1797
5009.080628 90.519 -30.6340
5045.378492 90.601 -30.2452
5081.939384 90.666 -29.9791
5118.765212 90.710 -29.7977
5155.857894 90.734 -29.6661
5193.219366 90.736 -29.5549
5230.851574 90.718 -29.4385
5268.756481 90.680 -29.2922
5306.936062 90.625 -29.0941
5345.392309 90.553 -28.8292
5384.127225 90.467 -28.4874
5423.142830 90.369 -28.0578
5462.441159 90.259 -27.5273
5502.024259 90.141 -26.8842
5541.894195 90.017 -26.1224
5582.053045 89.892 -25.2456
5622.502902 89.768 -24.2630
5663.245876 89.647 -23.1849
5704.284090 89.531 -22.0216
5745.619684 89.420 -20.7847
5787.254813 89.315 -19.4843
5829.191647 89.216 -18.1237
5871.432373 89.123 -16.6985
5913.979192 89.035 -15.2010
5956.834323 88.956 -13.6267
6000.000000 88.886 -11.9781
6043.478473 88.828 -10.2623
6087.272010 88.785 -8.4897
6131.382892 88.756 -6.6754
6175.813420 88.744 -4.8368
6220.565910 88.748 -2.9883
6265.642695 88.767 -1.1390
6311.046124 88.802 0.7052
6356.778566 88.854 2.5352
6402.842404 88.923 4.3356
6449.240040 89.009 6.0862
6495.973891 89.111 7.7631
6543.046396 89.228 9.3401
6590.460007 89.356 10.7953
6638.217197 89.490 12.1177
6686.320456 89.625 13.3096
6734.772290 89.757 14.3853
6783.575226 89.884 15.3665
6832.731809 90.002 16.2814
6882.244600 90.111 17.1603
6932.116181 90.212 18.0300
6982.349153 90.307 18.9119
7032.946133 90.400 19.8220
7083.909760 90.495 20.7700
7135.242690 90.598 21.7544
7186.947600 90.714 22.7601
7239.027185 90.848 23.7592
7291.484160 91.003 24.7116
7344.321260 91.180 25.5687
7397.541239 91.378 26.2805
7451.146872 91.593 26.8041
7505.140954 91.822 27.1052
7559.526299 92.058 27.1563
7614.305743 92.296 26.9352
7669.482141 92.531 26.4240
7725.058371 92.753 25.6088
7781.037328 92.956 24.4841
7837.421932 93.128 23.0609
7894.215122 93.259 21.3701
7951.419859 93.342 19.4606
8009.039125 93.369 17.3959
8067.075924 93.336 15.2481
8125.533282 93.242 13.0906
8184.414245 93.087 10.9944
8243.721885 92.873 9.0287
8303.459292 92.604 7.2614
8363.629581 92.284 5.7549
8424.235888 91.923 4.5627
8485.281374 91.529 3.7241
8546.769221 91.114 3.2573
8608.702634 90.687 3.1610
8671.084842 90.258 3.4225
8733.919097 89.835 4.0234
8797.208675 89.423 4.9446
8860.956876 89.029 6.1665
8925.167022 88.659 7.6636
8989.842461 88.319 9.4008
9054.986566 88.013 11.3380
9120.602731 87.743 13.4355
9186.694378 87.512 15.6590
9253.264952 87.322 17.9795
9320.317925 87.175 20.3671
9387.856790 87.074 22.7835
9455.885071 87.020 25.1831
9524.406312 87.014 27.5173
9593.424086 87.057 29.7388
9662.941992 87.148 31.8032
9732.963653 87.286 33.6615
9803.492719 87.470 35.2540
9874.532869 87.693 36.5138
9946.087805 87.948 37.3750
10018.161257 88.224 37.7848
10090.756983 88.509 37.7084
10163.878768 88.788 37.1273
10237.530423 89.047 36.0389
10311.715789 89.271 34.4604
10386.438732 89.445 32.4344
10461.703149 89.555 30.0312
10537.512962 89.590 27.3427
10613.872125 89.546 24.4694
10690.784618 89.419 21.5113
10768.254450 89.210 18.5626
10846.285661 88.923 15.7108
10924.882318 88.561 13.0352
11004.048518 88.132 10.6013
11083.788390 87.643 8.4574
11164.106090 87.105 6.6354
11245.005805 86.524 5.1587
11326.491752 85.907 4.0479
11408.568180 85.263 3.3195
11491.239368 84.600 2.9812
11574.509626 83.925 3.0282
11658.383294 83.246 3.4476
11742.864745 82.570 4.2231
11827.958384 81.903 5.3353
11913.668646 81.250 6.7579
12000.000000 80.618 8.4585
12086.956947 80.008 10.4052
12174.544019 79.425 12.5719
12262.765784 78.870 14.9351
12351.626840 78.345 17.4674
12441.131819 77.854 20.1377
12531.285389 77.396 22.9171
12622.092249 76.973 25.7825
12713.557132 76.585 28.7116
12805.684808 76.234 31.6780
12898.480079 75.921 34.6536
12991.947783 75.645 37.6140
13086.092792 75.407 40.5392
13180.920015 75.207 43.4085
13276.434395 75.044 46.2031
13372.640911 74.916 48.9146
13469.544580 74.825 51.5505
13567.150452 74.772 54.1258
13665.463617 74.765 56.6436
13764.489200 74.814 59.0667
13864.232362 74.928 61.2963
13964.698305 75.109 63.1930
14065.892266 75.351 64.6382
14167.819519 75.641 65.5677
14270.485380 75.969 65.9573
14373.895200 76.326 65.7940
14478.054370 76.702 65.0598
14582.968320 77.086 63.7368
14688.642520 77.463 61.8195
14795.082478 77.817 59.3269
14902.293745 78.129 56.3138
15010.281908 78.386 52.8817
15119.052599 78.580 49.1756
15228.611486 78.719 45.3556
15338.964283 78.820 41.5526
15450.116741 78.908 37.8390
15562.074656 79.007 34.2381
15674.843864 79.137 30.7581
15788.430244 79.327 27.4077
15902.839718 79.610 24.1686
16018.078250 80.021 20.9300
16134.151848 80.571 17.4216
16251.066563 81.226 13.2227
16368.828491 81.898 7.9072
16487.443769 82.479 1.2772
16606.918584 82.882 -6.5076
16727.259161 83.059 -15.0313
16848.471777 83.003 -23.8259
16970.562748 82.728 -32.4894
17093.538442 82.257 -40.7112
17217.405268 81.620 -48.2606
17342.169684 80.850 -54.9765
17467.838194 79.978 -60.7594
17594.417350 79.039 -65.5643
17721.913751 78.062 -69.3912
17850.334044 77.074 -72.2777
17979.684923 76.099 -74.2851
18109.973131 75.155 -75.4811
18241.205462 74.256 -75.9252
18373.388756 73.411 -75.6597
18506.529905 72.636 -74.7153
18640.635849 71.947 -73.1525
18775.713581 71.372 -71.1364
18911.770141 70.929 -68.9948
19048.812624 70.614 -67.1705
19186.848172 70.392 -66.0323
19325.883983 70.204 -65.6870
19465.927305 70.007 -65.9780
19606.985439 69.789 -66.6234
19749.065738 69.571 -67.3453
19892.175609 69.393 -67.9319
20036.322514 69.292 -68.2532
