* Measurement data measured by REW V5.31
* Source: EXCL: Microphone (USB Sound Device        ), MICROPHONE (Master Volume), L, volume: 0.560
* Format: 256k Log Swept Sine, 1 sweep at -9.0 dBFS with no timing reference
* Dated: Apr 16, 2024 5:14:39 PM
* REW Settings:
*  C-weighting compensation: Off
*  Target level: 75.0 dB
* Note: L KZ ZS10 PRO 2 0000
* Measurement: L KZ ZS10 PRO 2 0000 18
* Smoothing: 1/12 octave
* Frequency Step: 96 ppo
* Start Frequency: 0.36621094 Hz
*
* Freq(Hz) SPL(dB) Phase(degrees)
0.366211 82.836 156.1449
0.368865 82.830 156.1201
0.371538 82.820 156.0828
0.374230 82.809 156.0360
0.376942 82.797 155.9820
0.379673 82.783 155.9226
0.382424 82.769 155.8591
0.385196 82.754 155.7920
0.387987 82.740 155.7218
0.390798 82.725 155.6487
0.393630 82.709 155.5729
0.396483 82.694 155.4943
0.399356 82.679 155.4130
0.402250 82.663 155.3290
0.405165 82.648 155.2422
0.408101 82.632 155.1526
0.411058 82.616 155.0602
0.414037 82.600 154.9650
0.417037 82.584 154.8669
0.420059 82.568 154.7659
0.423103 82.552 154.6620
0.426169 82.535 154.5551
0.429257 82.519 154.4453
0.432368 82.502 154.3324
0.435501 82.485 154.2166
0.438656 82.468 154.0977
0.441835 82.451 153.9757
0.445037 82.434 153.8506
0.448262 82.417 153.7223
0.451510 82.399 153.5909
0.454782 82.382 153.4564
0.458077 82.364 153.3186
0.461397 82.346 153.1777
0.464740 82.328 153.0335
0.468108 82.310 152.8860
0.471500 82.292 152.7353
0.474917 82.274 152.5812
0.478358 82.256 152.4239
0.481825 82.237 152.2632
0.485316 82.218 152.0991
0.488833 82.199 151.9318
0.492375 82.180 151.7610
0.495943 82.161 151.5869
0.499537 82.142 151.4093
0.503157 82.123 151.2284
0.506803 82.103 151.0441
0.510475 82.083 150.8564
0.514175 82.064 150.6652
0.517900 82.044 150.4707
0.521653 82.024 150.2728
0.525434 82.003 150.0714
0.529241 81.983 149.8667
0.533076 81.962 149.6585
0.536939 81.942 149.4470
0.540830 81.921 149.2322
0.544749 81.900 149.0140
0.548696 81.879 148.7924
0.552673 81.857 148.5676
0.556677 81.836 148.3396
0.560711 81.814 148.1082
0.564774 81.793 147.8737
0.568867 81.771 147.6360
0.572989 81.748 147.3952
0.577141 81.726 147.1514
0.581324 81.704 146.9045
0.585536 81.681 146.6546
0.589779 81.659 146.4018
0.594053 81.636 146.1462
0.598358 81.613 145.8878
0.602694 81.589 145.6268
0.607061 81.566 145.3631
0.611460 81.542 145.0969
0.615891 81.519 144.8282
0.620354 81.495 144.5573
0.624849 81.471 144.2841
0.629377 81.446 144.0088
0.633938 81.422 143.7315
0.638532 81.397 143.4524
0.643159 81.373 143.1716
0.647819 81.348 142.8891
0.652514 81.322 142.6053
0.657242 81.297 142.3202
0.662005 81.272 142.0340
0.666802 81.246 141.7469
0.671634 81.220 141.4592
0.676501 81.194 141.1709
0.681403 81.168 140.8822
0.686341 81.141 140.5936
0.691314 81.114 140.3050
0.696324 81.087 140.0168
0.701370 81.060 139.7291
0.706452 81.033 139.4421
0.711571 81.004 139.1559
0.716728 80.975 138.8704
0.721921 80.945 138.5855
0.727153 80.913 138.3004
0.732422 80.879 138.0145
0.737729 80.843 137.7266
0.743075 80.805 137.4356
0.748460 80.765 137.1404
0.753883 80.724 136.8402
0.759346 80.681 136.5345
0.764849 80.638 136.2228
0.770391 80.594 135.9050
0.775974 80.550 135.5808
0.781597 80.505 135.2500
0.787261 80.459 134.9127
0.792966 80.413 134.5686
0.798712 80.366 134.2177
0.804500 80.319 133.8599
0.810329 80.271 133.4952
0.816201 80.222 133.1235
0.822116 80.173 132.7447
0.828073 80.123 132.3588
0.834074 80.072 131.9657
0.840118 80.020 131.5654
0.846206 79.968 131.1578
0.852338 79.914 130.7430
0.858514 79.860 130.3209
0.864735 79.805 129.8915
0.871001 79.749 129.4548
0.877313 79.692 129.0109
0.883670 79.634 128.5597
0.890074 79.574 128.1013
0.896524 79.514 127.6358
0.903020 79.452 127.1632
0.909564 79.389 126.6836
0.916155 79.325 126.1971
0.922794 79.260 125.7039
0.929481 79.193 125.2042
0.936216 79.125 124.6980
0.943000 79.055 124.1856
0.949834 78.984 123.6672
0.956717 78.911 123.1431
0.963649 78.836 122.6136
0.970632 78.760 122.0789
0.977666 78.682 121.5395
0.984750 78.602 120.9957
0.991886 78.520 120.4480
0.999074 78.436 119.8969
1.006314 78.350 119.3428
1.013606 78.262 118.7863
1.020951 78.172 118.2281
1.028349 78.079 117.6688
1.035801 77.984 117.1091
1.043307 77.887 116.5498
1.050867 77.787 115.9917
1.058482 77.684 115.4356
1.066152 77.579 114.8823
1.073878 77.471 114.3324
1.081660 77.360 113.7865
1.089498 77.246 113.2449
1.097393 77.128 112.7072
1.105345 77.008 112.1729
1.113355 76.885 111.6412
1.121423 76.758 111.1109
1.129549 76.629 110.5811
1.137734 76.496 110.0510
1.145979 76.360 109.5199
1.154283 76.220 108.9870
1.162647 76.077 108.4517
1.171072 75.931 107.9134
1.179558 75.782 107.3715
1.188106 75.630 106.8252
1.196715 75.474 106.2739
1.205387 75.315 105.7169
1.214122 75.153 105.1535
1.222920 74.988 104.5828
1.231782 74.819 104.0041
1.240708 74.647 103.4165
1.249699 74.472 102.8190
1.258754 74.294 102.2107
1.267876 74.113 101.5906
1.277063 73.929 100.9576
1.286318 73.742 100.3105
1.295639 73.551 99.6482
1.305027 73.358 98.9693
1.314484 73.162 98.2726
1.324009 72.963 97.5566
1.333604 72.761 96.8200
1.343268 72.556 96.0612
1.353002 72.348 95.2787
1.362806 72.138 94.4708
1.372681 71.925 93.6361
1.382628 71.709 92.7728
1.392647 71.490 91.8793
1.402739 71.269 90.9543
1.412904 71.046 89.9962
1.423142 70.819 89.0039
1.433455 70.589 87.9762
1.443843 70.356 86.9121
1.454305 70.117 85.8109
1.464844 69.872 84.6713
1.475459 69.618 83.4917
1.486150 69.354 82.2692
1.496920 69.078 80.9999
1.507767 68.790 79.6782
1.518693 68.489 78.2973
1.529698 68.175 76.8488
1.540783 67.850 75.3227
1.551948 67.514 73.7075
1.563194 67.168 71.9893
1.574521 66.814 70.1520
1.585931 66.453 68.1767
1.597423 66.086 66.0407
1.608999 65.716 63.7176
1.620658 65.343 61.1760
1.632402 64.970 58.3793
1.644232 64.599 55.2849
1.656146 64.232 51.8441
1.668147 63.870 48.0028
1.680235 63.517 43.7035
1.692411 63.175 38.8903
1.704675 62.845 33.5172
1.717028 62.532 27.5606
1.729470 62.237 21.0365
1.742003 61.965 14.0172
1.754626 61.717 6.6395
1.767341 61.498 -0.9031
1.780147 61.311 -8.3898
1.793047 61.160 -15.6137
1.806040 61.048 -22.4184
1.819128 60.979 -28.7168
1.832310 60.956 -34.4872
1.845587 60.981 -39.7557
1.858961 61.054 -44.5720
1.872432 61.176 -48.9909
1.886001 61.344 -53.0624
1.899667 61.558 -56.8287
1.913433 61.812 -60.3244
1.927299 62.104 -63.5780
1.941265 62.430 -66.6131
1.955332 62.787 -69.4494
1.969501 63.168 -72.1037
1.983773 63.571 -74.5904
1.998148 63.991 -76.9216
2.012627 64.423 -79.1082
2.027212 64.863 -81.1594
2.041902 65.306 -83.0833
2.056698 65.747 -84.8870
2.071602 66.182 -86.5767
2.086614 66.607 -88.1582
2.101734 67.016 -89.6365
2.116964 67.405 -91.0169
2.132304 67.771 -92.3050
2.147756 68.111 -93.5074
2.163320 68.422 -94.6323
2.178996 68.703 -95.6905
2.194786 68.955 -96.6957
2.210690 69.181 -97.6631
2.226710 69.383 -98.6076
2.242845 69.565 -99.5408
2.259098 69.728 -100.4706
2.275468 69.874 -101.4010
2.291957 70.005 -102.3330
2.308566 70.123 -103.2658
2.325295 70.227 -104.1973
2.342145 70.318 -105.1245
2.359117 70.399 -106.0435
2.376212 70.468 -106.9504
2.393431 70.528 -107.8406
2.410775 70.578 -108.7092
2.428244 70.621 -109.5511
2.445840 70.656 -110.3612
2.463564 70.685 -111.1341
2.481416 70.708 -111.8649
2.499397 70.726 -112.5492
2.517509 70.739 -113.1842
2.535752 70.748 -113.7688
2.554127 70.751 -114.3048
2.572635 70.748 -114.7967
2.591277 70.737 -115.2510
2.610055 70.717 -115.6739
2.628968 70.687 -116.0703
2.648019 70.648 -116.4429
2.667208 70.599 -116.7925
2.686535 70.541 -117.1185
2.706003 70.474 -117.4189
2.725612 70.401 -117.6908
2.745363 70.321 -117.9302
2.765257 70.235 -118.1328
2.785295 70.146 -118.2932
2.805478 70.055 -118.4054
2.825808 69.961 -118.4631
2.846285 69.867 -118.4591
2.866910 69.774 -118.3861
2.887685 69.681 -118.2366
2.908611 69.588 -118.0034
2.929688 69.495 -117.6796
2.950917 69.401 -117.2593
2.972301 69.303 -116.7377
2.993839 69.201 -116.1117
3.015534 69.096 -115.3792
3.037386 68.987 -114.5396
3.059396 68.877 -113.5938
3.081565 68.768 -112.5442
3.103896 68.662 -111.3948
3.126388 68.560 -110.1516
3.149043 68.468 -108.8223
3.171862 68.386 -107.4169
3.194847 68.319 -105.9467
3.217998 68.269 -104.4237
3.241317 68.240 -102.8596
3.264805 68.234 -101.2641
3.288463 68.252 -99.6438
3.312293 68.297 -98.0023
3.336295 68.368 -96.3430
3.360471 68.465 -94.6724
3.384822 68.584 -93.0017
3.409350 68.725 -91.3465
3.434056 68.885 -89.7251
3.458940 69.061 -88.1567
3.484005 69.249 -86.6599
3.509252 69.446 -85.2515
3.534681 69.650 -83.9458
3.560295 69.859 -82.7544
3.586094 70.069 -81.6852
3.612081 70.279 -80.7425
3.638255 70.489 -79.9267
3.664620 70.699 -79.2342
3.691175 70.911 -78.6581
3.717923 71.124 -78.1899
3.744864 71.341 -77.8205
3.772001 71.560 -77.5411
3.799335 71.781 -77.3437
3.826866 72.002 -77.2209
3.854597 72.221 -77.1662
3.882529 72.437 -77.1737
3.910664 72.648 -77.2386
3.939002 72.852 -77.3575
3.967546 73.048 -77.5281
3.996296 73.233 -77.7495
4.025255 73.409 -78.0223
4.054423 73.575 -78.3473
4.083804 73.730 -78.7243
4.113396 73.877 -79.1509
4.143204 74.014 -79.6225
4.173227 74.143 -80.1325
4.203468 74.263 -80.6732
4.233928 74.376 -81.2369
4.264609 74.480 -81.8162
4.295512 74.576 -82.4050
4.326639 74.665 -82.9990
4.357992 74.745 -83.5965
4.389572 74.817 -84.1985
4.421380 74.880 -84.8083
4.453419 74.934 -85.4291
4.485691 74.979 -86.0625
4.518196 75.016 -86.7070
4.550936 75.044 -87.3586
4.583914 75.064 -88.0111
4.617131 75.076 -88.6571
4.650589 75.082 -89.2889
4.684289 75.081 -89.8997
4.718233 75.073 -90.4840
4.752424 75.059 -91.0390
4.786862 75.038 -91.5644
4.821549 75.010 -92.0619
4.856488 74.975 -92.5329
4.891680 74.934 -92.9781
4.927127 74.887 -93.3963
4.962831 74.836 -93.7853
4.998794 74.781 -94.1414
5.035017 74.724 -94.4601
5.071503 74.666 -94.7367
5.108253 74.606 -94.9667
5.145270 74.546 -95.1465
5.182555 74.486 -95.2744
5.220110 74.425 -95.3508
5.257937 74.363 -95.3782
5.296038 74.304 -95.3609
5.334415 74.246 -95.3041
5.373071 74.193 -95.2134
5.412006 74.145 -95.0937
5.451224 74.104 -94.9484
5.490725 74.070 -94.7795
5.530514 74.045 -94.5877
5.570590 74.029 -94.3747
5.610957 74.020 -94.1449
5.651616 74.019 -93.9060
5.692570 74.026 -93.6683
5.733821 74.041 -93.4436
5.775370 74.063 -93.2431
5.817221 74.092 -93.0760
5.859375 74.130 -92.9485
5.901834 74.174 -92.8639
5.944602 74.226 -92.8234
5.987679 74.285 -92.8284
6.031068 74.349 -92.8814
6.074771 74.416 -92.9856
6.118792 74.486 -93.1451
6.163131 74.557 -93.3635
6.207792 74.628 -93.6441
6.252776 74.699 -93.9880
6.298086 74.768 -94.3946
6.343725 74.837 -94.8606
6.389694 74.903 -95.3813
6.435996 74.967 -95.9513
6.482634 75.027 -96.5652
6.529610 75.083 -97.2194
6.576926 75.133 -97.9113
6.624585 75.178 -98.6399
6.672590 75.218 -99.4037
6.720942 75.252 -100.1992
6.769645 75.280 -101.0207
6.818700 75.302 -101.8605
6.868111 75.319 -102.7112
6.917881 75.330 -103.5664
6.968010 75.336 -104.4219
7.018504 75.336 -105.2755
7.069362 75.331 -106.1255
7.120590 75.322 -106.9687
7.172189 75.308 -107.8003
7.224161 75.291 -108.6144
7.276511 75.272 -109.4052
7.329239 75.250 -110.1680
7.382350 75.227 -110.9004
7.435845 75.204 -111.6014
7.489729 75.180 -112.2711
7.544002 75.157 -112.9096
7.598669 75.137 -113.5168
7.653732 75.119 -114.0920
7.709194 75.106 -114.6349
7.765058 75.097 -115.1460
7.821327 75.093 -115.6277
7.878004 75.095 -116.0842
7.935091 75.103 -116.5209
7.992592 75.118 -116.9434
8.050510 75.139 -117.3562
8.108847 75.168 -117.7627
8.167607 75.204 -118.1662
8.226793 75.246 -118.5706
8.286408 75.295 -118.9809
8.346454 75.349 -119.4022
8.406936 75.409 -119.8387
8.467856 75.473 -120.2933
8.529218 75.540 -120.7669
8.591024 75.611 -121.2597
8.653278 75.684 -121.7713
8.715983 75.758 -122.3015
8.779143 75.832 -122.8497
8.842760 75.907 -123.4149
8.906839 75.980 -123.9948
8.971381 76.052 -124.5859
9.036392 76.122 -125.1842
9.101873 76.190 -125.7853
9.167829 76.255 -126.3857
9.234263 76.317 -126.9823
9.301178 76.377 -127.5718
9.368578 76.434 -128.1505
9.436467 76.488 -128.7142
9.504847 76.540 -129.2594
9.573723 76.589 -129.7834
9.643099 76.637 -130.2844
9.712976 76.684 -130.7615
9.783361 76.729 -131.2137
9.854255 76.774 -131.6404
9.925663 76.819 -132.0415
9.997588 76.864 -132.4177
10.070035 76.909 -132.7708
10.143007 76.955 -133.1029
10.216507 77.002 -133.4165
10.290540 77.050 -133.7142
10.365109 77.099 -133.9982
10.440219 77.150 -134.2712
10.515873 77.200 -134.5360
10.592076 77.252 -134.7955
10.668830 77.303 -135.0518
10.746141 77.354 -135.3065
10.824012 77.405 -135.5608
10.902447 77.455 -135.8154
10.981451 77.503 -136.0709
11.061027 77.550 -136.3274
11.141180 77.594 -136.5844
11.221913 77.637 -136.8409
11.303232 77.676 -137.0959
11.385140 77.713 -137.3482
11.467641 77.747 -137.5965
11.550741 77.778 -137.8399
11.634442 77.807 -138.0771
11.718750 77.833 -138.3071
11.803669 77.857 -138.5292
11.889203 77.878 -138.7432
11.975357 77.897 -138.9492
12.062136 77.915 -139.1474
12.149543 77.930 -139.3384
12.237583 77.945 -139.5230
12.326262 77.958 -139.7024
12.415583 77.969 -139.8778
12.505552 77.980 -140.0506
12.596172 77.990 -140.2218
12.687449 77.998 -140.3929
12.779387 78.006 -140.5649
12.871992 78.012 -140.7389
12.965268 78.018 -140.9158
13.059220 78.023 -141.0964
13.153852 78.026 -141.2814
13.249170 78.029 -141.4715
13.345179 78.032 -141.6674
13.441884 78.033 -141.8701
13.539289 78.035 -142.0805
13.637401 78.036 -142.2996
13.736223 78.036 -142.5287
13.835761 78.037 -142.7693
13.936021 78.038 -143.0229
14.037007 78.039 -143.2909
14.138725 78.039 -143.5748
14.241180 78.040 -143.8757
14.344377 78.040 -144.1945
14.448323 78.040 -144.5315
14.553021 78.039 -144.8866
14.658478 78.037 -145.2588
14.764700 78.034 -145.6468
14.871691 78.029 -146.0486
14.979457 78.023 -146.4615
15.088005 78.016 -146.8825
15.197339 78.008 -147.3085
15.307465 77.998 -147.7364
15.418389 77.988 -148.1631
15.530117 77.978 -148.5859
15.642655 77.968 -149.0029
15.756008 77.960 -149.4127
15.870182 77.952 -149.8150
15.985184 77.947 -150.2099
16.101019 77.945 -150.5988
16.217694 77.946 -150.9831
16.335214 77.950 -151.3649
16.453586 77.957 -151.7465
16.572815 77.967 -152.1299
16.692909 77.980 -152.5165
16.813872 77.995 -152.9073
16.935713 78.012 -153.3025
17.058436 78.031 -153.7013
17.182048 78.050 -154.1022
17.306556 78.069 -154.5029
17.431967 78.089 -154.9007
17.558286 78.109 -155.2928
17.685521 78.128 -155.6761
17.813677 78.147 -156.0481
17.942762 78.165 -156.4066
18.072783 78.184 -156.7503
18.203746 78.203 -157.0783
18.335658 78.222 -157.3908
18.468526 78.241 -157.6883
18.602356 78.260 -157.9721
18.737156 78.280 -158.2435
18.872934 78.299 -158.5041
19.009695 78.318 -158.7551
19.147447 78.336 -158.9976
19.286197 78.354 -159.2323
19.425953 78.370 -159.4596
19.566721 78.384 -159.6794
19.708510 78.396 -159.8915
19.851326 78.407 -160.0955
19.995177 78.415 -160.2911
20.140070 78.421 -160.4780
20.286013 78.425 -160.6564
20.433014 78.427 -160.8265
20.581080 78.427 -160.9889
20.730219 78.426 -161.1447
20.880439 78.423 -161.2949
21.031747 78.418 -161.4411
21.184152 78.412 -161.5850
21.337661 78.406 -161.7285
21.492282 78.398 -161.8737
21.648024 78.390 -162.0229
21.804895 78.380 -162.1783
21.962902 78.371 -162.3422
22.122054 78.360 -162.5166
22.282360 78.349 -162.7033
22.443827 78.337 -162.9032
22.606464 78.324 -163.1168
22.770280 78.309 -163.3437
22.935283 78.294 -163.5827
23.101481 78.278 -163.8321
23.268884 78.260 -164.0899
23.437500 78.242 -164.3540
23.607338 78.224 -164.6224
23.778406 78.206 -164.8937
23.950714 78.189 -165.1674
24.124271 78.173 -165.4433
24.299086 78.159 -165.7221
24.475167 78.146 -166.0044
24.652524 78.136 -166.2911
24.831166 78.127 -166.5823
25.011103 78.120 -166.8776
25.192344 78.114 -167.1760
25.374898 78.109 -167.4754
25.558775 78.106 -167.7734
25.743984 78.103 -168.0676
25.930536 78.101 -168.3553
26.118439 78.099 -168.6344
26.307704 78.099 -168.9035
26.498341 78.099 -169.1614
26.690359 78.100 -169.4075
26.883768 78.102 -169.6416
27.078579 78.104 -169.8633
27.274801 78.106 -170.0725
27.472446 78.108 -170.2692
27.671522 78.110 -170.4536
27.872042 78.112 -170.6262
28.074014 78.114 -170.7879
28.277450 78.115 -170.9404
28.482360 78.115 -171.0855
28.688755 78.115 -171.2253
28.896645 78.114 -171.3618
29.106042 78.112 -171.4966
29.316957 78.108 -171.6307
29.529400 78.102 -171.7648
29.743382 78.094 -171.8989
29.958915 78.084 -172.0328
30.176009 78.072 -172.1666
30.394677 78.059 -172.3001
30.614929 78.044 -172.4337
30.836778 78.028 -172.5683
31.060234 78.012 -172.7047
31.285309 77.995 -172.8444
31.512015 77.979 -172.9890
31.740364 77.962 -173.1402
31.970368 77.946 -173.2995
32.202039 77.931 -173.4683
32.435388 77.916 -173.6472
32.670428 77.901 -173.8360
32.907171 77.887 -174.0336
33.145630 77.873 -174.2380
33.385817 77.860 -174.4468
33.627745 77.846 -174.6572
33.871425 77.833 -174.8671
34.116871 77.821 -175.0748
34.364096 77.810 -175.2793
34.613113 77.799 -175.4799
34.863934 77.789 -175.6758
35.116572 77.779 -175.8656
35.371041 77.769 -176.0476
35.627354 77.759 -176.2197
35.885525 77.750 -176.3800
36.145566 77.740 -176.5281
36.407492 77.731 -176.6647
36.671316 77.722 -176.7919
36.937051 77.714 -176.9128
37.204712 77.705 -177.0301
37.474313 77.696 -177.1458
37.745867 77.687 -177.2607
38.019389 77.676 -177.3744
38.294893 77.664 -177.4863
38.572394 77.651 -177.5959
38.851905 77.637 -177.7038
39.133442 77.623 -177.8117
39.417019 77.608 -177.9217
39.702651 77.593 -178.0358
39.990353 77.578 -178.1549
40.280140 77.562 -178.2792
40.572026 77.545 -178.4074
40.866028 77.528 -178.5382
41.162160 77.512 -178.6703
41.460438 77.495 -178.8031
41.760877 77.479 -178.9366
42.063494 77.463 -179.0711
42.368303 77.448 -179.2067
42.675322 77.433 -179.3428
42.984565 77.419 -179.4783
43.296048 77.404 -179.6116
43.609789 77.390 -179.7411
43.925804 77.375 -179.8658
44.244108 77.361 -179.9848
44.564719 77.346 179.9023
44.887654 77.331 179.7960
45.212928 77.317 179.6968
45.540560 77.302 179.6044
45.870565 77.288 179.5172
46.202962 77.275 179.4326
46.537768 77.261 179.3472
46.875000 77.248 179.2581
47.214676 77.234 179.1645
47.556813 77.219 179.0682
47.901429 77.203 178.9730
48.248542 77.186 178.8833
48.598171 77.168 178.8021
48.950334 77.151 178.7299
49.305048 77.135 178.6640
49.662333 77.120 178.6005
50.022206 77.107 178.5352
50.384688 77.094 178.4653
50.749796 77.082 178.3904
51.117550 77.070 178.3120
51.487969 77.057 178.2327
51.861072 77.043 178.1557
52.236879 77.029 178.0833
52.615409 77.015 178.0165
52.996681 77.001 177.9551
53.380717 76.986 177.8976
53.767536 76.972 177.8415
54.157158 76.959 177.7843
54.549603 76.945 177.7244
54.944892 76.931 177.6616
55.343045 76.917 177.5971
55.744084 76.902 177.5332
56.148028 76.887 177.4719
56.554900 76.873 177.4137
56.964720 76.859 177.3571
57.377510 76.847 177.2993
57.793291 76.835 177.2371
58.212085 76.824 177.1690
58.633914 76.812 177.0963
59.058799 76.799 177.0227
59.486764 76.785 176.9533
59.917829 76.771 176.8919
60.352019 76.756 176.8392
60.789354 76.742 176.7933
61.229859 76.727 176.7515
61.673556 76.713 176.7122
62.120468 76.698 176.6755
62.570618 76.684 176.6413
63.024031 76.670 176.6075
63.480729 76.657 176.5695
63.940736 76.644 176.5232
64.404077 76.631 176.4680
64.870776 76.616 176.4069
65.340856 76.600 176.3452
65.814343 76.583 176.2870
66.291261 76.566 176.2338
66.771635 76.548 176.1861
67.255489 76.531 176.1442
67.742850 76.513 176.1078
68.233743 76.497 176.0750
68.728193 76.481 176.0412
69.226226 76.466 176.0022
69.727867 76.450 175.9570
70.233144 76.433 175.9091
70.742083 76.416 175.8641
71.254709 76.398 175.8261
71.771050 76.380 175.7952
72.291132 76.364 175.7684
72.814984 76.348 175.7426
73.342631 76.333 175.7169
73.874102 76.319 175.6918
74.409424 76.306 175.6678
74.948626 76.293 175.6443
75.491734 76.281 175.6210
76.038779 76.268 175.5988
76.589787 76.255 175.5799
77.144788 76.243 175.5648
77.703811 76.230 175.5523
78.266885 76.219 175.5399
78.834039 76.208 175.5246
79.405303 76.197 175.5040
79.980706 76.187 175.4754
80.560280 76.177 175.4373
81.144053 76.167 175.3898
81.732056 76.155 175.3344
82.324320 76.142 175.2739
82.920876 76.128 175.2115
83.521755 76.111 175.1510
84.126988 76.092 175.0961
84.736607 76.072 175.0492
85.350643 76.051 175.0104
85.969129 76.029 174.9788
86.592097 76.007 174.9533
87.219579 75.986 174.9322
87.851608 75.965 174.9138
88.488217 75.945 174.8970
89.129439 75.925 174.8820
89.775308 75.906 174.8702
90.425856 75.887 174.8629
91.081119 75.869 174.8609
91.741131 75.851 174.8650
92.405925 75.833 174.8747
93.075536 75.814 174.8890
93.750000 75.795 174.9061
94.429351 75.776 174.9233
95.113625 75.756 174.9377
95.802858 75.737 174.9469
96.497085 75.716 174.9500
97.196342 75.696 174.9485
97.900667 75.676 174.9462
98.610096 75.656 174.9488
99.324665 75.636 174.9631
100.044413 75.618 174.9928
100.769376 75.601 175.0355
101.499592 75.586 175.0847
102.235100 75.572 175.1347
102.975938 75.557 175.1835
103.722144 75.543 175.2292
104.473757 75.528 175.2672
105.230817 75.513 175.2917
105.993363 75.499 175.2999
106.761435 75.486 175.2919
107.535072 75.473 175.2728
108.314315 75.460 175.2498
109.099206 75.449 175.2287
109.889783 75.437 175.2121
110.686090 75.425 175.1994
111.488167 75.409 175.1888
112.296056 75.389 175.1797
113.109800 75.364 175.1735
113.929440 75.333 175.1693
114.755020 75.297 175.1623
115.586582 75.259 175.1465
116.424170 75.220 175.1192
117.267827 75.181 175.0845
118.117598 75.145 175.0562
118.973527 75.112 175.0583
119.835658 75.087 175.1127
120.704037 75.071 175.2189
121.578708 75.066 175.3518
122.459718 75.068 175.4852
123.347111 75.072 175.6072
124.240935 75.074 175.7178
125.141236 75.071 175.8209
126.048061 75.065 175.9185
126.961458 75.055 176.0092
127.881473 75.043 176.0914
128.808154 75.030 176.1647
129.741551 75.017 176.2316
130.681712 75.005 176.2950
131.628686 74.993 176.3571
132.582521 74.981 176.4177
133.543269 74.968 176.4733
134.510979 74.954 176.5201
135.485701 74.938 176.5568
136.467486 74.919 176.5856
137.456386 74.899 176.6103
138.452451 74.879 176.6364
139.455735 74.859 176.6694
140.466288 74.839 176.7124
141.484165 74.822 176.7651
142.509418 74.805 176.8248
143.542100 74.789 176.8874
144.582265 74.773 176.9497
145.629968 74.757 177.0109
146.685262 74.740 177.0729
147.748204 74.723 177.1374
148.818849 74.705 177.2050
149.897251 74.687 177.2764
150.983469 74.668 177.3535
152.077557 74.649 177.4383
153.179574 74.629 177.5319
154.289576 74.609 177.6357
155.407622 74.589 177.7503
156.533770 74.570 177.8712
157.668078 74.554 177.9885
158.810606 74.539 178.0934
159.961413 74.525 178.1834
161.120559 74.512 178.2617
162.288105 74.499 178.3347
163.464112 74.485 178.4072
164.648640 74.471 178.4813
165.841752 74.456 178.5551
167.043510 74.442 178.6256
168.253976 74.430 178.6917
169.473213 74.421 178.7568
170.701286 74.416 178.8279
171.938258 74.415 178.9113
173.184194 74.414 179.0070
174.439158 74.412 179.1078
175.703216 74.402 179.2063
176.976434 74.383 179.3045
178.258878 74.355 179.4117
179.550615 74.320 179.5332
180.851713 74.285 179.6627
182.162239 74.254 179.7898
183.482262 74.227 179.9090
184.811850 74.206 -179.9801
186.151073 74.189 -179.8741
187.500000 74.174 -179.7695
188.858702 74.160 -179.6647
190.227250 74.147 -179.5596
191.605715 74.132 -179.4548
192.994169 74.116 -179.3532
194.392685 74.098 -179.2602
195.801334 74.080 -179.1812
197.220191 74.062 -179.1167
198.649330 74.045 -179.0582
200.088825 74.030 -178.9903
201.538751 74.015 -178.8962
202.999184 74.001 -178.7638
204.470200 73.985 -178.5918
205.951875 73.969 -178.3936
207.444287 73.952 -178.1923
208.947514 73.936 -178.0066
210.461634 73.919 -177.8419
211.986726 73.901 -177.6934
213.522869 73.883 -177.5522
215.070144 73.864 -177.4091
216.628631 73.844 -177.2571
218.198411 73.824 -177.0937
219.779567 73.805 -176.9216
221.372180 73.788 -176.7466
222.976334 73.773 -176.5749
224.592112 73.759 -176.4099
226.219600 73.745 -176.2512
227.858880 73.731 -176.0955
229.510039 73.717 -175.9377
231.173164 73.703 -175.7740
232.848340 73.690 -175.6052
234.535655 73.678 -175.4353
236.235197 73.666 -175.2702
237.947054 73.654 -175.1146
239.671317 73.641 -174.9706
241.408074 73.626 -174.8367
243.157416 73.610 -174.7078
244.919435 73.593 -174.5759
246.694223 73.575 -174.4321
248.481871 73.557 -174.2697
250.282473 73.539 -174.0853
252.096123 73.522 -173.8798
253.922915 73.507 -173.6573
255.762945 73.495 -173.4265
257.616309 73.486 -173.1986
259.483103 73.479 -172.9837
261.363424 73.473 -172.7874
263.257372 73.465 -172.6088
265.165043 73.456 -172.4417
267.086538 73.445 -172.2771
269.021957 73.432 -172.1064
270.971401 73.418 -171.9241
272.934972 73.404 -171.7290
274.912771 73.391 -171.5235
276.904902 73.379 -171.3101
278.911469 73.369 -171.0898
280.932577 73.362 -170.8635
282.968330 73.357 -170.6358
285.018835 73.355 -170.4157
287.084199 73.355 -170.2139
289.164530 73.355 -170.0376
291.259935 73.353 -169.8872
293.370525 73.349 -169.7554
295.496408 73.341 -169.6307
297.637697 73.331 -169.5038
299.794503 73.318 -169.3700
301.966937 73.304 -169.2282
304.155114 73.291 -169.0778
306.359147 73.278 -168.9167
308.579152 73.265 -168.7424
310.815244 73.251 -168.5554
313.067539 73.236 -168.3605
315.336156 73.220 -168.1635
317.621211 73.204 -167.9666
319.922826 73.187 -167.7676
322.241118 73.170 -167.5638
324.576210 73.154 -167.3534
326.928223 73.139 -167.1354
329.297280 73.125 -166.9102
331.683504 73.112 -166.6799
334.087019 73.101 -166.4485
336.507952 73.090 -166.2199
338.946427 73.079 -165.9963
341.402572 73.068 -165.7772
343.876516 73.057 -165.5610
346.368387 73.045 -165.3463
348.878315 73.034 -165.1317
351.406431 73.022 -164.9151
353.952867 73.011 -164.6939
356.517756 73.000 -164.4673
359.101230 72.989 -164.2363
361.703426 72.977 -164.0031
364.324478 72.964 -163.7692
366.964523 72.951 -163.5351
369.623699 72.936 -163.2988
372.302145 72.923 -163.0574
375.000000 72.910 -162.8092
377.717405 72.898 -162.5541
380.454501 72.887 -162.2942
383.211431 72.876 -162.0321
385.988339 72.866 -161.7693
388.785369 72.855 -161.5062
391.602668 72.845 -161.2414
394.440383 72.836 -160.9728
397.298660 72.827 -160.6992
400.177650 72.821 -160.4216
403.077502 72.816 -160.1425
405.998368 72.812 -159.8649
408.940400 72.809 -159.5901
411.903750 72.803 -159.3160
414.888575 72.794 -159.0386
417.895028 72.781 -158.7522
420.923268 72.767 -158.4527
423.973452 72.751 -158.1402
427.045738 72.738 -157.8185
430.140287 72.727 -157.4947
433.257261 72.718 -157.1765
436.396822 72.712 -156.8676
439.559133 72.708 -156.5662
442.744360 72.706 -156.2693
445.952668 72.706 -155.9761
449.184225 72.706 -155.6891
452.439199 72.706 -155.4130
455.717760 72.706 -155.1520
459.020079 72.704 -154.9052
462.346327 72.699 -154.6643
465.696680 72.691 -154.4175
469.071310 72.681 -154.1557
472.470394 72.671 -153.8766
475.894109 72.661 -153.5834
479.342634 72.651 -153.2833
482.816148 72.640 -152.9846
486.314833 72.629 -152.6910
489.838871 72.617 -152.3968
493.388445 72.604 -152.0901
496.963741 72.591 -151.7632
500.564945 72.580 -151.4181
504.192245 72.571 -151.0638
507.845830 72.563 -150.7094
511.525890 72.557 -150.3594
515.232618 72.550 -150.0130
518.966206 72.543 -149.6669
522.726849 72.536 -149.3172
526.514743 72.528 -148.9607
530.330086 72.520 -148.5957
534.173076 72.513 -148.2226
538.043915 72.506 -147.8436
541.942803 72.501 -147.4594
545.869944 72.496 -147.0698
549.825542 72.492 -146.6769
553.809805 72.489 -146.2861
557.822939 72.486 -145.9028
561.865154 72.484 -145.5278
565.936660 72.481 -145.1582
570.037671 72.478 -144.7883
574.168399 72.474 -144.4135
578.329060 72.470 -144.0314
582.519870 72.466 -143.6430
586.741049 72.462 -143.2485
590.992817 72.458 -142.8441
595.275394 72.454 -142.4253
599.589005 72.451 -141.9929
603.933874 72.448 -141.5533
608.310228 72.446 -141.1124
612.718295 72.444 -140.6729
617.158304 72.441 -140.2338
621.630488 72.437 -139.7900
626.135079 72.433 -139.3354
630.672311 72.431 -138.8674
635.242423 72.431 -138.3895
639.845651 72.433 -137.9075
644.482237 72.437 -137.4235
649.152421 72.444 -136.9369
653.856447 72.454 -136.4482
658.594560 72.467 -135.9621
663.367008 72.484 -135.4866
668.174039 72.501 -135.0278
673.015903 72.518 -134.5852
677.892854 72.533 -134.1532
682.805145 72.544 -133.7256
687.753032 72.554 -133.2968
692.736774 72.561 -132.8614
697.756631 72.568 -132.4154
702.812863 72.575 -131.9571
707.905735 72.582 -131.4883
713.035511 72.591 -131.0130
718.202461 72.600 -130.5345
723.406852 72.609 -130.0540
728.648956 72.620 -129.5707
733.929047 72.631 -129.0827
739.247399 72.643 -128.5890
744.604290 72.657 -128.0888
750.000000 72.670 -127.5811
755.434809 72.684 -127.0651
760.909001 72.699 -126.5422
766.422861 72.715 -126.0154
771.976677 72.732 -125.4863
777.570739 72.751 -124.9550
783.205337 72.771 -124.4203
788.880766 72.791 -123.8812
794.597321 72.813 -123.3358
800.355301 72.838 -122.7833
806.155005 72.865 -122.2265
811.996736 72.895 -121.6735
817.880799 72.929 -121.1359
823.807501 72.964 -120.6257
829.777150 73.000 -120.1507
835.790057 73.033 -119.7072
841.846536 73.061 -119.2772
847.946903 73.085 -118.8376
854.091476 73.105 -118.3743
860.280575 73.125 -117.8868
866.514523 73.146 -117.3816
872.793644 73.168 -116.8630
879.118267 73.191 -116.3338
885.488720 73.216 -115.7945
891.905336 73.241 -115.2410
898.368450 73.268 -114.6673
904.878398 73.297 -114.0726
911.435520 73.330 -113.4637
918.040157 73.366 -112.8522
924.692655 73.406 -112.2483
931.393359 73.450 -111.6594
938.142619 73.495 -111.0895
944.940787 73.541 -110.5378
951.788218 73.587 -109.9992
958.685268 73.633 -109.4673
965.632296 73.679 -108.9371
972.629666 73.726 -108.4048
979.677741 73.774 -107.8692
986.776890 73.822 -107.3326
993.927482 73.871 -106.7977
1001.129891 73.921 -106.2639
1008.384491 73.971 -105.7277
1015.691660 74.024 -105.1870
1023.051781 74.079 -104.6434
1030.465236 74.138 -104.1030
1037.932411 74.199 -103.5775
1045.453698 74.264 -103.0794
1053.029486 74.329 -102.6147
1060.660172 74.393 -102.1804
1068.346153 74.456 -101.7678
1076.087829 74.517 -101.3662
1083.885605 74.577 -100.9678
1091.739887 74.635 -100.5704
1099.651084 74.693 -100.1746
1107.619609 74.749 -99.7808
1115.645878 74.805 -99.3881
1123.730308 74.861 -98.9950
1131.873321 74.915 -98.6001
1140.075341 74.969 -98.2017
1148.336797 75.022 -97.7986
1156.658119 75.076 -97.3906
1165.039741 75.129 -96.9785
1173.482099 75.184 -96.5616
1181.985634 75.241 -96.1402
1190.550789 75.300 -95.7195
1199.178011 75.362 -95.3103
1207.867749 75.425 -94.9246
1216.620457 75.488 -94.5679
1225.436590 75.549 -94.2362
1234.316609 75.607 -93.9203
1243.260976 75.662 -93.6104
1252.270157 75.713 -93.2985
1261.344623 75.763 -92.9808
1270.484846 75.811 -92.6576
1279.691303 75.858 -92.3293
1288.964474 75.904 -91.9953
1298.304842 75.949 -91.6555
1307.712894 75.994 -91.3108
1317.189120 76.038 -90.9625
1326.734016 76.083 -90.6114
1336.348077 76.126 -90.2567
1346.031806 76.168 -89.8969
1355.785708 76.210 -89.5296
1365.610290 76.250 -89.1517
1375.506065 76.290 -88.7574
1385.473549 76.329 -88.3405
1395.513261 76.371 -87.8992
1405.625726 76.415 -87.4388
1415.811469 76.463 -86.9716
1426.071023 76.516 -86.5123
1436.404921 76.571 -86.0706
1446.813703 76.626 -85.6477
1457.297912 76.681 -85.2387
1467.858093 76.734 -84.8375
1478.494798 76.786 -84.4390
1489.208581 76.836 -84.0389
1500.000000 76.884 -83.6335
1510.869618 76.932 -83.2197
1521.818002 76.979 -82.7948
1532.845723 77.027 -82.3563
1543.953355 77.075 -81.9030
1555.141477 77.126 -81.4350
1566.410674 77.180 -80.9572
1577.761531 77.238 -80.4805
1589.194642 77.299 -80.0194
1600.710601 77.362 -79.5827
1612.310010 77.426 -79.1703
1623.993473 77.488 -78.7756
1635.761599 77.549 -78.3896
1647.615002 77.608 -78.0052
1659.554299 77.666 -77.6180
1671.580114 77.722 -77.2259
1683.693072 77.777 -76.8290
1695.893807 77.833 -76.4297
1708.182952 77.889 -76.0298
1720.561150 77.943 -75.6288
1733.029045 77.997 -75.2230
1745.587288 78.049 -74.8066
1758.236533 78.101 -74.3730
1770.977440 78.153 -73.9168
1783.810673 78.208 -73.4389
1796.736900 78.267 -72.9486
1809.756796 78.330 -72.4602
1822.871040 78.397 -71.9844
1836.080315 78.466 -71.5245
1849.385310 78.535 -71.0792
1862.786718 78.604 -70.6451
1876.285239 78.673 -70.2176
1889.881575 78.741 -69.7915
1903.576436 78.809 -69.3612
1917.370535 78.876 -68.9216
1931.264593 78.946 -68.4691
1945.259332 79.017 -68.0049
1959.355483 79.093 -67.5384
1973.553781 79.172 -67.0846
1987.854965 79.255 -66.6550
2002.259781 79.339 -66.2529
2016.768981 79.423 -65.8752
2031.383320 79.507 -65.5167
2046.103561 79.590 -65.1719
2060.930471 79.671 -64.8371
2075.864823 79.752 -64.5107
2090.907395 79.832 -64.1928
2106.058972 79.910 -63.8812
2121.320344 79.986 -63.5706
2136.692305 80.061 -63.2524
2152.175658 80.135 -62.9185
2167.771210 80.210 -62.5671
2183.479774 80.289 -62.2063
2199.302169 80.371 -61.8493
2215.239219 80.455 -61.5061
2231.291755 80.541 -61.1808
2247.460615 80.628 -60.8725
2263.746641 80.714 -60.5771
2280.150683 80.799 -60.2885
2296.673595 80.884 -59.9997
2313.316238 80.969 -59.7054
2330.079481 81.056 -59.4052
2346.964198 81.147 -59.1076
2363.971268 81.242 -58.8261
2381.101578 81.339 -58.5713
2398.356022 81.437 -58.3479
2415.735498 81.535 -58.1555
2433.240913 81.633 -57.9908
2450.873180 81.729 -57.8511
2468.633217 81.824 -57.7352
2486.521951 81.916 -57.6407
2504.540314 82.004 -57.5617
2522.689246 82.090 -57.4882
2540.969692 82.173 -57.4104
2559.382606 82.256 -57.3259
2577.928947 82.340 -57.2418
2596.609683 82.425 -57.1682
2615.425787 82.511 -57.1132
2634.378241 82.597 -57.0800
2653.468031 82.682 -57.0668
2672.696154 82.765 -57.0673
2692.063613 82.846 -57.0734
2711.571415 82.927 -57.0806
2731.220579 83.009 -57.0925
2751.012130 83.092 -57.1198
2770.947098 83.177 -57.1740
2791.026522 83.263 -57.2632
2811.251451 83.347 -57.3914
2831.622938 83.430 -57.5598
2852.142045 83.509 -57.7679
2872.809842 83.584 -58.0133
2893.627406 83.653 -58.2890
2914.595823 83.717 -58.5844
2935.716186 83.775 -58.8904
2956.989596 83.829 -59.2051
2978.417161 83.879 -59.5330
3000.000000 83.926 -59.8802
3021.739237 83.968 -60.2509
3043.636005 84.004 -60.6441
3065.691446 84.032 -61.0532
3087.906710 84.054 -61.4690
3110.282955 84.069 -61.8861
3132.821347 84.078 -62.3058
3155.523062 84.082 -62.7333
3178.389283 84.080 -63.1730
3201.421202 84.070 -63.6257
3224.620020 84.051 -64.0892
3247.986946 84.022 -64.5585
3271.523198 83.982 -65.0237
3295.230004 83.928 -65.4677
3319.108599 83.862 -65.8706
3343.160228 83.784 -66.2164
3367.386145 83.696 -66.4961
3391.787613 83.601 -66.7055
3416.365904 83.499 -66.8406
3441.122300 83.390 -66.8940
3466.058091 83.277 -66.8549
3491.174576 83.162 -66.7144
3516.473066 83.049 -66.4728
3541.954880 82.940 -66.1400
3567.621345 82.837 -65.7317
3593.473800 82.743 -65.2654
3619.513592 82.657 -64.7594
3645.742080 82.580 -64.2295
3672.160630 82.509 -63.6849
3698.770620 82.444 -63.1267
3725.573436 82.384 -62.5547
3752.570477 82.330 -61.9732
3779.763150 82.281 -61.3908
3807.152872 82.236 -60.8154
3834.741071 82.192 -60.2483
3862.529185 82.150 -59.6839
3890.518664 82.109 -59.1157
3918.710966 82.071 -58.5424
3947.107561 82.036 -57.9689
3975.709929 82.004 -57.4036
4004.519563 81.974 -56.8558
4033.537962 81.945 -56.3329
4062.766641 81.916 -55.8356
4092.207123 81.883 -55.3566
4121.860942 81.846 -54.8866
4151.729646 81.805 -54.4193
4181.814790 81.760 -53.9506
4212.117944 81.709 -53.4740
4242.640687 81.651 -52.9759
4273.384610 81.588 -52.4393
4304.351317 81.520 -51.8505
4335.542421 81.449 -51.2031
4366.959549 81.379 -50.4971
4398.604338 81.309 -49.7374
4430.478438 81.240 -48.9293
4462.583511 81.172 -48.0717
4494.921231 81.107 -47.1571
4527.493283 81.044 -46.1784
4560.301365 80.986 -45.1327
4593.347189 80.934 -44.0200
4626.632476 80.890 -42.8380
4660.158962 80.857 -41.5833
4693.928395 80.838 -40.2594
4727.942535 80.837 -38.8822
4762.203156 80.858 -37.4821
4796.712043 80.902 -36.1014
4831.470996 80.970 -34.7860
4866.481826 81.057 -33.5754
4901.746360 81.160 -32.5002
4937.266434 81.274 -31.5847
4973.043902 81.393 -30.8452
5009.080628 81.510 -30.2837
5045.378492 81.618 -29.8852
5081.939384 81.713 -29.6238
5118.765212 81.791 -29.4696
5155.857894 81.852 -29.3944
5193.219366 81.894 -29.3743
5230.851574 81.916 -29.3876
5268.756481 81.920 -29.4111
5306.936062 81.904 -29.4229
5345.392309 81.872 -29.4056
5384.127225 81.824 -29.3454
5423.142830 81.760 -29.2264
5462.441159 81.682 -29.0302
5502.024259 81.592 -28.7396
5541.894195 81.494 -28.3433
5582.053045 81.391 -27.8397
5622.502902 81.286 -27.2338
5663.245876 81.182 -26.5329
5704.284090 81.079 -25.7463
5745.619684 80.980 -24.8862
5787.254813 80.884 -23.9639
5829.191647 80.793 -22.9836
5871.432373 80.705 -21.9423
5913.979192 80.621 -20.8340
5956.834323 80.543 -19.6560
6000.000000 80.472 -18.4118
6043.478473 80.412 -17.1091
6087.272010 80.362 -15.7583
6131.382892 80.324 -14.3739
6175.813420 80.298 -12.9729
6220.565910 80.284 -11.5692
6265.642695 80.282 -10.1706
6311.046124 80.292 -8.7817
6356.778566 80.313 -7.4101
6402.842404 80.347 -6.0692
6449.240040 80.394 -4.7775
6495.973891 80.452 -3.5577
6543.046396 80.520 -2.4346
6590.460007 80.593 -1.4288
6638.217197 80.667 -0.5497
6686.320456 80.736 0.2075
6734.772290 80.796 0.8601
6783.575226 80.843 1.4339
6832.731809 80.875 1.9620
6882.244600 80.892 2.4801
6932.116181 80.895 3.0208
6982.349153 80.885 3.6107
7032.946133 80.868 4.2710
7083.909760 80.846 5.0152
7135.242690 80.826 5.8468
7186.947600 80.811 6.7567
7239.027185 80.806 7.7255
7291.484160 80.815 8.7248
7344.321260 80.838 9.7186
7397.541239 80.876 10.6710
7451.146872 80.925 11.5532
7505.140954 80.984 12.3468
7559.526299 81.049 13.0406
7614.305743 81.117 13.6275
7669.482141 81.186 14.1017
7725.058371 81.254 14.4555
7781.037328 81.316 14.6814
7837.421932 81.368 14.7791
7894.215122 81.406 14.7589
7951.419859 81.426 14.6406
8009.039125 81.426 14.4499
8067.075924 81.403 14.2143
8125.533282 81.359 13.9570
8184.414245 81.292 13.6969
8243.721885 81.202 13.4541
8303.459292 81.089 13.2543
8363.629581 80.953 13.1270
8424.235888 80.796 13.1033
8485.281374 80.620 13.2100
8546.769221 80.432 13.4643
8608.702634 80.234 13.8737
8671.084842 80.030 14.4416
8733.919097 79.823 15.1715
8797.208675 79.618 16.0682
8860.956876 79.416 17.1365
8925.167022 79.223 18.3744
8989.842461 79.043 19.7689
9054.986566 78.880 21.2999
9120.602731 78.738 22.9466
9186.694378 78.618 24.6916
9253.264952 78.523 26.5209
9320.317925 78.456 28.4168
9387.856790 78.419 30.3527
9455.885071 78.416 32.2947
9524.406312 78.448 34.2062
9593.424086 78.514 36.0530
9662.941992 78.615 37.8039
9732.963653 78.751 39.4239
9803.492719 78.922 40.8690
9874.532869 79.125 42.0868
9946.087805 79.356 43.0240
10018.161257 79.609 43.6349
10090.756983 79.875 43.8857
10163.878768 80.147 43.7505
10237.530423 80.414 43.2108
10311.715789 80.665 42.2592
10386.438732 80.889 40.9055
10461.703149 81.074 39.1822
10537.512962 81.210 37.1399
10613.872125 81.290 34.8391
10690.784618 81.309 32.3443
10768.254450 81.264 29.7212
10846.285661 81.152 27.0382
10924.882318 80.973 24.3646
11004.048518 80.730 21.7650
11083.788390 80.427 19.2944
11164.106090 80.068 16.9972
11245.005805 79.658 14.9131
11326.491752 79.203 13.0794
11408.568180 78.707 11.5292
11491.239368 78.179 10.2857
11574.509626 77.626 9.3594
11658.383294 77.056 8.7522
11742.864745 76.475 8.4613
11827.958384 75.890 8.4791
11913.668646 75.307 8.7897
12000.000000 74.732 9.3681
12086.956947 74.170 10.1868
12174.544019 73.624 11.2215
12262.765784 73.097 12.4479
12351.626840 72.593 13.8361
12441.131819 72.114 15.3512
12531.285389 71.662 16.9592
12622.092249 71.238 18.6313
12713.557132 70.842 20.3390
12805.684808 70.475 22.0498
12898.480079 70.135 23.7310
12991.947783 69.821 25.3540
13086.092792 69.532 26.8935
13180.920015 69.264 28.3246
13276.434395 69.014 29.6270
13372.640911 68.779 30.7943
13469.544580 68.555 31.8401
13567.150452 68.341 32.7920
13665.463617 68.142 33.6716
13764.489200 67.962 34.4654
13864.232362 67.810 35.1042
13964.698305 67.683 35.4876
14065.892266 67.570 35.5462
14167.819519 67.459 35.2719
14270.485380 67.339 34.7038
14373.895200 67.203 33.8968
14478.054370 67.049 32.8990
14582.968320 66.875 31.7467
14688.642520 66.679 30.4711
14795.082478 66.458 29.1051
14902.293745 66.211 27.6915
15010.281908 65.934 26.2991
15119.052599 65.625 25.0319
15228.611486 65.292 24.0189
15338.964283 64.950 23.3839
15450.116741 64.628 23.2142
15562.074656 64.360 23.5506
15674.843864 64.187 24.4002
15788.430244 64.157 25.7386
15902.839718 64.317 27.4642
16018.078250 64.702 29.2984
16134.151848 65.305 30.7128
16251.066563 66.062 31.0403
16368.828491 66.866 29.7943
16487.443769 67.619 26.9365
16606.918584 68.264 22.8268
16727.259161 68.794 17.9289
16848.471777 69.229 12.5861
16970.562748 69.588 6.9775
17093.538442 69.883 1.1661
17217.405268 70.113 -4.8354
17342.169684 70.266 -11.0136
17467.838194 70.328 -17.3255
17594.417350 70.284 -23.6884
17721.913751 70.125 -29.9853
17850.334044 69.849 -36.0809
17979.684923 69.457 -41.8353
18109.973131 68.958 -47.1126
18241.205462 68.362 -51.7891
18373.388756 67.688 -55.7581
18506.529905 66.960 -58.9412
18640.635849 66.210 -61.3221
18775.713581 65.478 -62.9995
18911.770141 64.801 -64.2209
19048.812624 64.193 -65.3265
19186.848172 63.637 -66.5912
19325.883983 63.096 -68.0913
19465.927305 62.541 -69.7161
19606.985439 61.976 -71.2716
19749.065738 61.441 -72.5720
19892.175609 61.008 -73.4857
20036.322514 60.764 -73.9487
