* Measurement data measured by REW V5.30.5
* Source: EXCL: Microphone (Realtek(R) Audio), MICROPHONE (Master Volume), L, volume: 1.000
* Format: 256k Log Swept Sine, 1 sweep at -10.0 dBFS with no timing reference
* Dated: Feb 12, 2024 1:35:22 AM
* REW Settings:
*  C-weighting compensation: Off
*  Target level: 75.0 dB
* Note: Softears Twilight R
* Measurement: R Softears Twilight
* Smoothing: 1/12 octave
* Frequency Step: 96 ppo
* Start Frequency: 1.0986328 Hz
*
* Freq(Hz) SPL(dB) Phase(degrees)
1.098633 85.498 24.3703
1.106594 85.525 24.1530
1.114613 85.565 23.8317
1.122690 85.613 23.4354
1.130825 85.668 22.9888
1.139020 85.727 22.5099
1.147273 85.788 22.0103
1.155587 85.850 21.4975
1.163961 85.914 20.9755
1.172395 85.978 20.4470
1.180891 86.043 19.9133
1.189448 86.109 19.3753
1.198068 86.175 18.8336
1.206749 86.241 18.2887
1.215494 86.308 17.7408
1.224302 86.376 17.1904
1.233174 86.444 16.6377
1.242110 86.512 16.0831
1.251111 86.581 15.5268
1.260177 86.651 14.9693
1.269308 86.721 14.4108
1.278506 86.792 13.8516
1.287771 86.863 13.2922
1.297103 86.934 12.7328
1.306502 87.006 12.1738
1.315969 87.079 11.6155
1.325505 87.152 11.0583
1.335111 87.226 10.5026
1.344785 87.300 9.9487
1.354530 87.375 9.3969
1.364346 87.450 8.8476
1.374232 87.526 8.3013
1.384191 87.602 7.7581
1.394221 87.679 7.2186
1.404324 87.756 6.6829
1.414500 87.834 6.1513
1.424751 87.911 5.6240
1.435075 87.989 5.1011
1.445474 88.066 4.5824
1.455948 88.143 4.0675
1.466499 88.219 3.5558
1.477126 88.293 3.0464
1.487830 88.366 2.5386
1.498611 88.438 2.0315
1.509471 88.509 1.5248
1.520409 88.580 1.0182
1.531427 88.651 0.5115
1.542524 88.721 0.0047
1.553702 88.791 -0.5023
1.564960 88.860 -1.0093
1.576301 88.930 -1.5163
1.587723 88.999 -2.0233
1.599229 89.068 -2.5301
1.610817 89.137 -3.0366
1.622490 89.206 -3.5428
1.634247 89.275 -4.0485
1.646089 89.344 -4.5536
1.658018 89.412 -5.0581
1.670032 89.481 -5.5618
1.682134 89.550 -6.0646
1.694323 89.618 -6.5664
1.706601 89.687 -7.0670
1.718968 89.755 -7.5664
1.731424 89.824 -8.0645
1.743971 89.893 -8.5611
1.756608 89.961 -9.0562
1.769338 90.030 -9.5496
1.782159 90.099 -10.0414
1.795073 90.169 -10.5316
1.808081 90.238 -11.0204
1.821183 90.307 -11.5081
1.834380 90.377 -11.9950
1.847673 90.446 -12.4816
1.861062 90.515 -12.9684
1.874548 90.584 -13.4557
1.888132 90.653 -13.9437
1.901814 90.722 -14.4323
1.915595 90.790 -14.9215
1.929476 90.859 -15.4113
1.943458 90.927 -15.9013
1.957541 90.995 -16.3915
1.971726 91.063 -16.8816
1.986014 91.131 -17.3713
2.000406 91.199 -17.8604
2.014902 91.267 -18.3487
2.029502 91.334 -18.8358
2.044209 91.402 -19.3214
2.059022 91.470 -19.8054
2.073943 91.538 -20.2873
2.088971 91.607 -20.7670
2.104109 91.675 -21.2440
2.119356 91.744 -21.7181
2.134714 91.813 -22.1891
2.150183 91.882 -22.6567
2.165764 91.951 -23.1208
2.181458 92.021 -23.5814
2.197266 92.091 -24.0387
2.213188 92.161 -24.4929
2.229226 92.231 -24.9443
2.245379 92.301 -25.3932
2.261650 92.372 -25.8398
2.278039 92.442 -26.2844
2.294547 92.512 -26.7272
2.311174 92.583 -27.1681
2.327922 92.653 -27.6074
2.344791 92.724 -28.0451
2.361782 92.794 -28.4811
2.378897 92.865 -28.9157
2.396135 92.936 -29.3487
2.413498 93.008 -29.7803
2.430988 93.079 -30.2103
2.448604 93.151 -30.6389
2.466347 93.223 -31.0659
2.484219 93.296 -31.4914
2.502221 93.369 -31.9153
2.520353 93.442 -32.3375
2.538617 93.516 -32.7578
2.557013 93.591 -33.1761
2.575542 93.665 -33.5921
2.594205 93.741 -34.0057
2.613004 93.816 -34.4170
2.631939 93.892 -34.8259
2.651011 93.968 -35.2326
2.670221 94.045 -35.6374
2.689571 94.121 -36.0407
2.709061 94.199 -36.4427
2.728692 94.276 -36.8438
2.748465 94.354 -37.2444
2.768381 94.432 -37.6448
2.788442 94.511 -38.0455
2.808648 94.589 -38.4468
2.829001 94.669 -38.8491
2.849501 94.748 -39.2525
2.870150 94.828 -39.6575
2.890948 94.909 -40.0640
2.911897 94.989 -40.4720
2.932998 95.071 -40.8815
2.954252 95.152 -41.2921
2.975659 95.234 -41.7036
2.997222 95.317 -42.1158
3.018941 95.400 -42.5286
3.040818 95.483 -42.9421
3.062853 95.566 -43.3563
3.085048 95.650 -43.7714
3.107403 95.735 -44.1877
3.129921 95.819 -44.6054
3.152601 95.904 -45.0247
3.175447 95.988 -45.4459
3.198457 96.073 -45.8694
3.221634 96.158 -46.2953
3.244980 96.243 -46.7238
3.268494 96.328 -47.1551
3.292179 96.414 -47.5894
3.316035 96.499 -48.0265
3.340065 96.584 -48.4664
3.364268 96.670 -48.9089
3.388647 96.755 -49.3540
3.413202 96.841 -49.8014
3.437936 96.926 -50.2511
3.462848 97.012 -50.7030
3.487942 97.097 -51.1572
3.513217 97.183 -51.6135
3.538675 97.268 -52.0722
3.564318 97.353 -52.5332
3.590146 97.437 -52.9968
3.616162 97.521 -53.4632
3.642366 97.605 -53.9327
3.668760 97.688 -54.4056
3.695346 97.771 -54.8822
3.722124 97.853 -55.3626
3.749096 97.935 -55.8466
3.776263 98.017 -56.3338
3.803627 98.098 -56.8239
3.831190 98.178 -57.3161
3.858953 98.258 -57.8099
3.886916 98.338 -58.3047
3.915082 98.417 -58.8001
3.943453 98.495 -59.2955
3.972029 98.572 -59.7910
4.000812 98.649 -60.2864
4.029803 98.725 -60.7823
4.059005 98.800 -61.2790
4.088418 98.874 -61.7768
4.118044 98.948 -62.2759
4.147885 99.021 -62.7760
4.177943 99.092 -63.2766
4.208218 99.163 -63.7771
4.238712 99.234 -64.2765
4.269428 99.303 -64.7741
4.300366 99.372 -65.2692
4.331528 99.440 -65.7614
4.362916 99.507 -66.2503
4.394531 99.573 -66.7362
4.426376 99.639 -67.2193
4.458451 99.704 -67.7000
4.490759 99.767 -68.1785
4.523301 99.830 -68.6546
4.556078 99.892 -69.1280
4.589094 99.954 -69.5980
4.622348 100.015 -70.0640
4.655844 100.075 -70.5251
4.689582 100.135 -70.9807
4.723565 100.194 -71.4305
4.757793 100.253 -71.8743
4.792270 100.311 -72.3120
4.826997 100.369 -72.7440
4.861975 100.426 -73.1705
4.897207 100.483 -73.5916
4.932694 100.540 -74.0074
4.968439 100.596 -74.4178
5.004442 100.652 -74.8227
5.040707 100.708 -75.2217
5.077234 100.765 -75.6147
5.114026 100.821 -76.0016
5.151084 100.877 -76.3821
5.188411 100.934 -76.7564
5.226008 100.991 -77.1247
5.263878 101.048 -77.4874
5.302022 101.105 -77.8451
5.340443 101.163 -78.1983
5.379142 101.221 -78.5474
5.418121 101.279 -78.8930
5.457383 101.338 -79.2352
5.496930 101.397 -79.5741
5.536763 101.458 -79.9098
5.576884 101.518 -80.2424
5.617297 101.580 -80.5722
5.658002 101.642 -80.8999
5.699002 101.704 -81.2262
5.740300 101.768 -81.5520
5.781896 101.831 -81.8779
5.823794 101.895 -82.2047
5.865995 101.960 -82.5325
5.908503 102.026 -82.8615
5.951319 102.092 -83.1919
5.994444 102.158 -83.5238
6.037883 102.225 -83.8576
6.081636 102.292 -84.1939
6.125706 102.359 -84.5332
6.170095 102.427 -84.8760
6.214807 102.495 -85.2227
6.259841 102.562 -85.5735
6.305203 102.630 -85.9285
6.350893 102.698 -86.2875
6.396914 102.765 -86.6504
6.443269 102.833 -87.0170
6.489959 102.900 -87.3875
6.536988 102.966 -87.7616
6.584358 103.032 -88.1395
6.632071 103.098 -88.5212
6.680129 103.163 -88.9065
6.728536 103.227 -89.2952
6.777294 103.291 -89.6868
6.826405 103.354 -90.0806
6.875872 103.416 -90.4763
6.925697 103.477 -90.8734
6.975883 103.537 -91.2717
7.026433 103.597 -91.6711
7.077350 103.656 -92.0711
7.128635 103.713 -92.4715
7.180293 103.770 -92.8717
7.232324 103.826 -93.2710
7.284732 103.882 -93.6690
7.337521 103.936 -94.0653
7.390691 103.990 -94.4597
7.444247 104.043 -94.8521
7.498191 104.095 -95.2423
7.552526 104.147 -95.6301
7.607255 104.198 -96.0153
7.662380 104.249 -96.3976
7.717905 104.299 -96.7770
7.773832 104.349 -97.1534
7.830165 104.399 -97.5270
7.886906 104.448 -97.8980
7.944057 104.497 -98.2666
8.001623 104.546 -98.6330
8.059607 104.595 -98.9974
8.118010 104.643 -99.3600
8.176836 104.692 -99.7211
8.236089 104.741 -100.0810
8.295771 104.789 -100.4402
8.355886 104.838 -100.7991
8.416435 104.886 -101.1582
8.477425 104.935 -101.5177
8.538856 104.983 -101.8778
8.600732 105.032 -102.2389
8.663056 105.080 -102.6011
8.725832 105.128 -102.9648
8.789062 105.176 -103.3302
8.852752 105.223 -103.6973
8.916903 105.270 -104.0663
8.981518 105.316 -104.4369
9.046601 105.363 -104.8091
9.112157 105.408 -105.1827
9.178187 105.453 -105.5575
9.244697 105.497 -105.9334
9.311687 105.541 -106.3099
9.379164 105.584 -106.6866
9.447129 105.626 -107.0631
9.515587 105.668 -107.4390
9.584540 105.708 -107.8138
9.653994 105.748 -108.1871
9.723950 105.788 -108.5586
9.794415 105.827 -108.9279
9.865389 105.865 -109.2944
9.936877 105.903 -109.6580
10.008884 105.940 -110.0184
10.081413 105.977 -110.3755
10.154468 106.014 -110.7294
10.228051 106.051 -111.0800
10.302168 106.088 -111.4273
10.376822 106.124 -111.7717
10.452016 106.161 -112.1134
10.527756 106.198 -112.4529
10.604044 106.235 -112.7907
10.680885 106.273 -113.1272
10.758284 106.310 -113.4629
10.836243 106.349 -113.7986
10.914766 106.387 -114.1347
10.993859 106.425 -114.4719
11.073525 106.464 -114.8108
11.153769 106.503 -115.1517
11.234593 106.542 -115.4950
11.316004 106.581 -115.8411
11.398005 106.620 -116.1902
11.480599 106.658 -116.5424
11.563792 106.697 -116.8975
11.647588 106.734 -117.2553
11.731991 106.772 -117.6157
11.817006 106.808 -117.9782
11.902637 106.845 -118.3424
11.988889 106.880 -118.7076
12.075766 106.914 -119.0731
12.163272 106.948 -119.4383
12.251412 106.981 -119.8026
12.340191 107.013 -120.1652
12.429613 107.045 -120.5256
12.519683 107.076 -120.8832
12.610406 107.106 -121.2375
12.701786 107.136 -121.5882
12.793828 107.165 -121.9350
12.886538 107.194 -122.2778
12.979918 107.223 -122.6166
13.073977 107.252 -122.9515
13.168715 107.280 -123.2828
13.264141 107.309 -123.6108
13.360258 107.338 -123.9357
13.457072 107.367 -124.2580
13.554587 107.396 -124.5782
13.652809 107.425 -124.8966
13.751743 107.454 -125.2137
13.851394 107.483 -125.5297
13.951767 107.512 -125.8449
14.052867 107.541 -126.1595
14.154700 107.570 -126.4735
14.257271 107.599 -126.7872
14.360585 107.628 -127.1004
14.464648 107.656 -127.4131
14.569465 107.685 -127.7254
14.675041 107.713 -128.0371
14.781383 107.741 -128.3482
14.888494 107.769 -128.6588
14.996383 107.797 -128.9691
15.105053 107.824 -129.2790
15.214510 107.851 -129.5888
15.324760 107.879 -129.8986
15.435810 107.905 -130.2088
15.547665 107.932 -130.5194
15.660330 107.958 -130.8306
15.773811 107.984 -131.1423
15.888115 108.010 -131.4545
16.003246 108.034 -131.7670
16.119213 108.059 -132.0793
16.236019 108.082 -132.3910
16.353672 108.105 -132.7014
16.472178 108.127 -133.0099
16.591541 108.148 -133.3158
16.711771 108.169 -133.6185
16.832870 108.189 -133.9175
16.954849 108.209 -134.2123
17.077711 108.229 -134.5029
17.201464 108.248 -134.7893
17.326113 108.268 -135.0719
17.451664 108.288 -135.3511
17.578125 108.307 -135.6278
17.705503 108.327 -135.9027
17.833805 108.348 -136.1767
17.963036 108.368 -136.4504
18.093203 108.389 -136.7245
18.224314 108.409 -136.9993
18.356375 108.430 -137.2749
18.489393 108.450 -137.5511
18.623375 108.470 -137.8274
18.758327 108.489 -138.1032
18.894258 108.509 -138.3776
19.031174 108.527 -138.6501
19.169081 108.546 -138.9200
19.307987 108.565 -139.1871
19.447901 108.583 -139.4516
19.588829 108.602 -139.7137
19.730778 108.622 -139.9743
19.873755 108.641 -140.2347
20.017769 108.662 -140.4959
20.162827 108.682 -140.7593
20.308935 108.703 -141.0259
20.456102 108.724 -141.2966
20.604336 108.745 -141.5716
20.753643 108.765 -141.8508
20.904032 108.784 -142.1335
21.055511 108.803 -142.4186
21.208088 108.820 -142.7048
21.361771 108.837 -142.9906
21.516567 108.852 -143.2746
21.672485 108.867 -143.5556
21.829533 108.881 -143.8328
21.987719 108.894 -144.1058
22.147051 108.907 -144.3743
22.307537 108.919 -144.6384
22.469187 108.931 -144.8981
22.632008 108.942 -145.1534
22.796009 108.953 -145.4040
22.961199 108.964 -145.6493
23.127584 108.974 -145.8887
23.295176 108.984 -146.1213
23.463982 108.994 -146.3468
23.634012 109.005 -146.5651
23.805275 109.016 -146.7769
23.977777 109.028 -146.9838
24.151531 109.041 -147.1881
24.326544 109.056 -147.3930
24.502825 109.072 -147.6017
24.680382 109.089 -147.8173
24.859226 109.107 -148.0420
25.039366 109.124 -148.2769
25.220812 109.141 -148.5216
25.403572 109.157 -148.7742
25.587656 109.170 -149.0315
25.773075 109.182 -149.2895
25.959837 109.193 -149.5443
26.147953 109.202 -149.7923
26.337431 109.210 -150.0312
26.528282 109.218 -150.2603
26.720516 109.226 -150.4804
26.914145 109.235 -150.6940
27.109175 109.246 -150.9043
27.305618 109.258 -151.1150
27.503487 109.271 -151.3292
27.702787 109.284 -151.5490
27.903534 109.298 -151.7755
28.105734 109.311 -152.0080
28.309401 109.323 -152.2450
28.514542 109.335 -152.4842
28.721170 109.345 -152.7229
28.929296 109.355 -152.9589
29.138929 109.364 -153.1904
29.350082 109.372 -153.4166
29.562765 109.381 -153.6373
29.776989 109.390 -153.8532
29.992765 109.399 -154.0653
30.210106 109.408 -154.2754
30.429020 109.418 -154.4850
30.649521 109.429 -154.6961
30.871620 109.440 -154.9100
31.095329 109.450 -155.1277
31.320660 109.461 -155.3493
31.547623 109.470 -155.5741
31.776230 109.479 -155.8004
32.006493 109.486 -156.0257
32.238426 109.492 -156.2474
32.472038 109.498 -156.4632
32.707344 109.503 -156.6717
32.944355 109.507 -156.8729
33.183083 109.513 -157.0682
33.423542 109.519 -157.2599
33.665741 109.526 -157.4512
33.909698 109.534 -157.6446
34.155422 109.543 -157.8418
34.402927 109.551 -158.0432
34.652225 109.559 -158.2481
34.903328 109.567 -158.4552
35.156250 109.574 -158.6635
35.411007 109.582 -158.8721
35.667610 109.589 -159.0816
35.926071 109.596 -159.2925
36.186405 109.603 -159.5054
36.448627 109.609 -159.7201
36.712749 109.615 -159.9346
36.978786 109.619 -160.1459
37.246750 109.622 -160.3499
37.516655 109.625 -160.5432
37.788517 109.628 -160.7237
38.062347 109.632 -160.8919
38.338161 109.637 -161.0509
38.615974 109.644 -161.2059
38.895802 109.653 -161.3629
39.177658 109.663 -161.5267
39.461555 109.674 -161.7001
39.747509 109.684 -161.8829
40.035538 109.693 -162.0721
40.325653 109.700 -162.2630
40.617870 109.705 -162.4510
40.912205 109.709 -162.6326
41.208672 109.713 -162.8066
41.507286 109.716 -162.9742
41.808064 109.719 -163.1380
42.111023 109.722 -163.3008
42.416176 109.726 -163.4644
42.723541 109.728 -163.6293
43.033134 109.731 -163.7949
43.344971 109.733 -163.9606
43.659065 109.735 -164.1265
43.975437 109.737 -164.2943
44.294102 109.739 -164.4666
44.615074 109.741 -164.6455
44.938374 109.742 -164.8311
45.264015 109.743 -165.0216
45.592018 109.742 -165.2130
45.922398 109.740 -165.4010
46.255169 109.738 -165.5830
46.590351 109.737 -165.7586
46.927963 109.736 -165.9300
47.268024 109.737 -166.1011
47.610550 109.739 -166.2753
47.955555 109.742 -166.4549
48.303062 109.745 -166.6402
48.653088 109.748 -166.8297
49.005650 109.751 -167.0206
49.360764 109.753 -167.2096
49.718452 109.754 -167.3940
50.078732 109.756 -167.5718
50.441624 109.757 -167.7430
50.807144 109.760 -167.9092
51.175312 109.763 -168.0734
51.546150 109.767 -168.2381
51.919674 109.771 -168.4044
52.295906 109.774 -168.5714
52.674862 109.776 -168.7357
53.056564 109.778 -168.8935
53.441032 109.779 -169.0412
53.828289 109.779 -169.1765
54.218349 109.781 -169.2996
54.611237 109.784 -169.4137
55.006973 109.789 -169.5245
55.405575 109.797 -169.6396
55.807068 109.806 -169.7661
56.211468 109.815 -169.9086
56.618801 109.824 -170.0674
57.029083 109.831 -170.2383
57.442341 109.835 -170.4142
57.858593 109.837 -170.5881
58.277859 109.837 -170.7559
58.700165 109.837 -170.9177
59.125530 109.837 -171.0772
59.553978 109.838 -171.2387
59.985531 109.837 -171.4043
60.420212 109.836 -171.5723
60.858040 109.834 -171.7395
61.299042 109.833 -171.9044
61.743240 109.832 -172.0697
62.190659 109.831 -172.2408
62.641319 109.830 -172.4208
63.095245 109.828 -172.6069
63.552460 109.824 -172.7912
64.012985 109.819 -172.9648
64.476852 109.813 -173.1235
64.944077 109.809 -173.2697
65.414688 109.805 -173.4103
65.888710 109.803 -173.5525
66.366165 109.801 -173.7001
66.847084 109.798 -173.8530
67.331482 109.794 -174.0086
67.819397 109.789 -174.1628
68.310844 109.783 -174.3129
68.805855 109.777 -174.4572
69.304451 109.771 -174.5961
69.806656 109.766 -174.7327
70.312500 109.764 -174.8717
70.822014 109.762 -175.0178
71.335220 109.762 -175.1712
71.852142 109.761 -175.3273
72.372810 109.761 -175.4797
72.897255 109.761 -175.6267
73.425499 109.762 -175.7724
73.957573 109.761 -175.9208
74.493500 109.757 -176.0681
75.033310 109.749 -176.2027
75.577034 109.737 -176.3139
76.124695 109.723 -176.4001
76.676323 109.706 -176.4691
77.231949 109.688 -176.5296
77.791603 109.666 -176.5824
78.355316 109.643 -176.6208
78.923111 109.618 -176.6395
79.495018 109.596 -176.6405
80.071075 109.578 -176.6327
80.651306 109.567 -176.6259
81.235741 109.563 -176.6298
81.824409 109.569 -176.6587
82.417343 109.585 -176.7351
83.014572 109.607 -176.8843
83.616127 109.630 -177.1196
84.222046 109.649 -177.4271
84.832352 109.658 -177.7655
85.447083 109.659 -178.0848
86.066269 109.655 -178.3552
86.689941 109.652 -178.5794
87.318130 109.651 -178.7766
87.950874 109.653 -178.9599
88.588203 109.654 -179.1294
89.230148 109.656 -179.2820
89.876747 109.657 -179.4181
90.528030 109.656 -179.5394
91.184036 109.653 -179.6472
91.844795 109.648 -179.7459
92.510338 109.640 -179.8444
93.180702 109.629 -179.9529
93.855927 109.616 179.9219
94.536049 109.601 179.7769
95.221100 109.585 179.6113
95.911110 109.571 179.4261
96.606125 109.558 179.2253
97.306175 109.548 179.0164
98.011299 109.540 178.8129
98.721527 109.533 178.6329
99.436905 109.527 178.4912
100.157463 109.521 178.3912
100.883247 109.513 178.3228
101.614288 109.502 178.2711
102.350624 109.487 178.2256
103.092300 109.468 178.1802
103.839348 109.449 178.1241
104.591812 109.435 178.0352
105.349724 109.428 177.8886
106.113129 109.425 177.6772
106.882065 109.423 177.4320
107.656578 109.416 177.2240
108.436699 109.404 177.1377
109.222473 109.392 177.2238
110.013947 109.388 177.4602
110.811150 109.397 177.7453
111.614136 109.418 177.9357
112.422935 109.446 177.9040
113.237602 109.477 177.5776
114.058167 109.508 176.9475
114.884682 109.545 176.0611
115.717186 109.596 174.9974
116.555717 109.664 173.8434
117.400330 109.742 172.6971
118.251060 109.808 171.6827
119.107956 109.836 170.9821
119.971062 109.809 170.8513
120.840424 109.739 171.4819
121.716080 109.661 172.7638
122.598083 109.602 174.2944
123.486481 109.563 175.6583
124.381317 109.532 176.6183
125.282639 109.498 177.1167
126.190491 109.461 177.2055
127.104919 109.427 176.9805
128.025970 109.400 176.5564
128.953705 109.385 176.0546
129.888153 109.381 175.5797
130.829376 109.384 175.1970
131.777420 109.390 174.9240
132.732330 109.391 174.7407
133.694168 109.387 174.6105
134.662964 109.377 174.4959
135.638794 109.363 174.3679
136.621689 109.350 174.2134
137.611710 109.340 174.0367
138.608902 109.332 173.8541
139.613312 109.325 173.6866
140.625000 109.316 173.5493
141.644028 109.304 173.4429
142.670441 109.286 173.3564
143.704285 109.262 173.2799
144.745621 109.235 173.2108
145.794510 109.208 173.1490
146.850998 109.183 173.0914
147.915146 109.161 173.0325
148.987000 109.141 172.9692
150.066620 109.123 172.9000
151.154068 109.106 172.8223
152.249390 109.089 172.7365
153.352646 109.074 172.6489
154.463898 109.062 172.5676
155.583206 109.053 172.4956
156.710632 109.045 172.4280
157.846222 109.037 172.3543
158.990036 109.027 172.2627
160.142151 109.012 172.1472
161.302612 108.993 172.0123
162.471481 108.973 171.8725
163.648819 108.953 171.7450
164.834686 108.935 171.6436
166.029144 108.919 171.5754
167.232254 108.902 171.5396
168.444092 108.884 171.5272
169.664703 108.865 171.5199
170.894165 108.849 171.4912
172.132538 108.836 171.4153
173.379883 108.825 171.2850
174.636261 108.814 171.1275
175.901749 108.799 170.9900
177.176407 108.781 170.8976
178.460297 108.761 170.8328
179.753494 108.737 170.7639
181.056061 108.710 170.6726
182.368073 108.683 170.5574
183.689590 108.658 170.4263
185.020676 108.638 170.2927
186.361404 108.625 170.1708
187.711853 108.616 170.0691
189.072098 108.609 169.9874
190.442200 108.603 169.9205
191.822220 108.594 169.8628
193.212250 108.582 169.8083
194.612350 108.567 169.7480
196.022598 108.551 169.6735
197.443054 108.533 169.5848
198.873810 108.513 169.4911
200.314926 108.494 169.4043
201.766495 108.477 169.3342
203.228577 108.460 169.2871
204.701248 108.445 169.2609
206.184601 108.431 169.2426
207.678696 108.417 169.2119
209.183624 108.401 169.1504
210.699448 108.383 169.0520
212.226257 108.362 168.9278
213.764130 108.340 168.7975
215.313156 108.316 168.6793
216.873398 108.292 168.5851
218.444946 108.269 168.5177
220.027893 108.248 168.4708
221.622299 108.228 168.4349
223.228271 108.211 168.4022
224.845871 108.196 168.3680
226.475204 108.182 168.3293
228.116333 108.167 168.2838
229.769363 108.152 168.2300
231.434372 108.136 168.1686
233.111435 108.120 168.1020
234.800659 108.103 168.0332
236.502121 108.086 167.9642
238.215912 108.066 167.8958
239.942123 108.043 167.8284
241.680847 108.017 167.7645
243.432159 107.988 167.7089
245.196167 107.959 167.6667
246.972961 107.931 167.6399
248.762634 107.903 167.6262
250.565277 107.876 167.6198
252.380981 107.850 167.6148
254.209839 107.825 167.6068
256.051941 107.802 167.5918
257.907410 107.782 167.5682
259.776306 107.765 167.5384
261.658752 107.749 167.5083
263.554840 107.734 167.4838
265.464661 107.718 167.4653
267.388336 107.700 167.4489
269.325928 107.681 167.4322
271.277588 107.661 167.4159
273.243378 107.640 167.4016
275.223419 107.619 167.3909
277.217804 107.600 167.3859
279.226624 107.581 167.3870
281.250000 107.564 167.3926
283.288055 107.548 167.3982
285.340881 107.534 167.3973
287.408569 107.522 167.3821
289.491241 107.509 167.3465
291.589020 107.494 167.2893
293.701996 107.477 167.2153
295.830292 107.456 167.1344
297.973999 107.432 167.0579
300.133240 107.406 166.9945
302.308136 107.378 166.9479
304.498779 107.351 166.9173
306.705292 107.325 166.8986
308.927795 107.300 166.8861
311.166412 107.275 166.8753
313.421265 107.249 166.8632
315.692444 107.223 166.8494
317.980072 107.196 166.8367
320.284302 107.168 166.8295
322.605225 107.140 166.8313
324.942963 107.112 166.8433
327.297638 107.085 166.8634
329.669373 107.059 166.8873
332.058289 107.033 166.9111
334.464508 107.007 166.9325
336.888184 106.981 166.9512
339.329407 106.955 166.9678
341.788330 106.929 166.9845
344.265076 106.903 167.0047
346.759766 106.876 167.0310
349.272522 106.849 167.0638
351.803497 106.822 167.1013
354.352814 106.795 167.1412
356.920593 106.769 167.1808
359.506989 106.743 167.2187
362.112122 106.717 167.2547
364.736145 106.693 167.2902
367.379181 106.669 167.3270
370.041351 106.645 167.3657
372.722809 106.620 167.4067
375.423706 106.595 167.4503
378.144196 106.568 167.4971
380.884399 106.542 167.5485
383.644440 106.515 167.6051
386.424500 106.488 167.6665
389.224701 106.461 167.7318
392.045197 106.434 167.8004
394.886108 106.408 167.8713
397.747620 106.382 167.9435
400.629852 106.356 168.0157
403.532990 106.330 168.0875
406.457153 106.304 168.1581
409.402496 106.278 168.2285
412.369202 106.252 168.3010
415.357391 106.226 168.3786
418.367249 106.200 168.4642
421.398895 106.175 168.5604
424.452515 106.150 168.6680
427.528259 106.126 168.7836
430.626312 106.104 168.9007
433.746796 106.083 169.0133
436.889893 106.062 169.1197
440.055786 106.042 169.2211
443.244598 106.023 169.3181
446.456543 106.005 169.4084
449.691742 105.987 169.4871
452.950409 105.970 169.5488
456.232666 105.952 169.5915
459.538727 105.932 169.6199
462.868744 105.908 169.6454
466.222870 105.881 169.6795
469.601318 105.851 169.7293
473.004242 105.821 169.7959
476.431824 105.791 169.8760
479.884247 105.761 169.9641
483.361694 105.731 170.0551
486.864319 105.700 170.1483
490.392334 105.668 170.2487
493.945923 105.635 170.3626
497.525269 105.603 170.4920
501.130554 105.572 170.6321
504.761963 105.543 170.7758
508.419678 105.515 170.9171
512.103882 105.487 171.0541
515.814819 105.458 171.1884
519.552612 105.427 171.3244
523.317505 105.395 171.4670
527.109680 105.362 171.6212
530.929321 105.329 171.7883
534.776672 105.298 171.9646
538.651855 105.267 172.1450
542.555176 105.238 172.3278
546.486755 105.209 172.5148
550.446838 105.180 172.7081
554.435608 105.152 172.9067
558.453247 105.124 173.1080
562.500000 105.097 173.3096
566.576111 105.071 173.5119
570.681763 105.044 173.7177
574.817139 105.017 173.9303
578.982483 104.990 174.1512
583.178040 104.962 174.3797
587.403992 104.934 174.6157
591.660583 104.907 174.8612
595.947998 104.880 175.1181
600.266479 104.854 175.3848
604.616272 104.829 175.6572
608.997559 104.805 175.9316
613.410583 104.781 176.2067
617.855591 104.757 176.4852
622.332825 104.733 176.7726
626.842529 104.709 177.0742
631.384888 104.688 177.3907
635.960144 104.668 177.7173
640.568604 104.652 178.0485
645.210449 104.638 178.3834
649.885925 104.626 178.7230
654.595276 104.617 179.0653
659.338745 104.611 179.4021
664.116577 104.607 179.7220
668.929016 104.605 -179.9828
673.776367 104.601 -179.7107
678.658813 104.596 -179.4532
683.576660 104.589 -179.2007
688.530151 104.580 -178.9456
693.519531 104.569 -178.6817
698.545044 104.558 -178.4044
703.606995 104.546 -178.1130
708.705627 104.535 -177.8111
713.841187 104.525 -177.5039
719.013977 104.516 -177.1950
724.224243 104.507 -176.8849
729.472290 104.499 -176.5721
734.758362 104.491 -176.2543
740.082703 104.484 -175.9301
745.445618 104.477 -175.5989
750.847412 104.471 -175.2611
756.288391 104.466 -174.9175
761.768799 104.462 -174.5689
767.288879 104.459 -174.2158
772.848999 104.456 -173.8582
778.449402 104.455 -173.4964
784.090393 104.455 -173.1302
789.772217 104.456 -172.7576
795.495239 104.457 -172.3754
801.259705 104.461 -171.9817
807.065979 104.467 -171.5789
812.914307 104.477 -171.1742
818.804993 104.490 -170.7773
824.738403 104.507 -170.3985
830.714783 104.525 -170.0452
836.734497 104.543 -169.7173
842.797791 104.560 -169.4060
848.905029 104.576 -169.0999
855.056519 104.589 -168.7916
861.252625 104.602 -168.4780
867.493591 104.614 -168.1563
873.779785 104.626 -167.8234
880.111572 104.639 -167.4795
886.489197 104.653 -167.1286
892.913086 104.668 -166.7739
899.383484 104.683 -166.4157
905.900818 104.700 -166.0527
912.465332 104.719 -165.6853
919.077454 104.739 -165.3157
925.737488 104.761 -164.9465
932.445740 104.785 -164.5805
939.202637 104.811 -164.2203
946.008484 104.837 -163.8663
952.863647 104.864 -163.5171
959.768494 104.892 -163.1704
966.723389 104.920 -162.8242
973.728638 104.948 -162.4769
980.784668 104.977 -162.1288
987.891846 105.007 -161.7810
995.050537 105.037 -161.4321
1002.261108 105.069 -161.0775
1009.523926 105.102 -160.7130
1016.839355 105.138 -160.3390
1024.207764 105.177 -159.9598
1031.629639 105.221 -159.5832
1039.105225 105.269 -159.2217
1046.635010 105.320 -158.8876
1054.219360 105.372 -158.5857
1061.858643 105.424 -158.3116
1069.553345 105.475 -158.0564
1077.303711 105.524 -157.8111
1085.110352 105.573 -157.5709
1092.973511 105.622 -157.3355
1100.893677 105.671 -157.1062
1108.871216 105.720 -156.8838
1116.906494 105.768 -156.6680
1125.000000 105.816 -156.4580
1133.152222 105.864 -156.2525
1141.363525 105.912 -156.0503
1149.634277 105.959 -155.8498
1157.964966 106.006 -155.6500
1166.356079 106.054 -155.4494
1174.807983 106.102 -155.2466
1183.321167 106.151 -155.0422
1191.895996 106.203 -154.8424
1200.532959 106.258 -154.6573
1209.232544 106.314 -154.4975
1217.995117 106.370 -154.3672
1226.821167 106.424 -154.2622
1235.711182 106.475 -154.1741
1244.665649 106.524 -154.0936
1253.685059 106.569 -154.0130
1262.769775 106.613 -153.9291
1271.920288 106.655 -153.8410
1281.137207 106.695 -153.7476
1290.420898 106.735 -153.6476
1299.771851 106.775 -153.5416
1309.190552 106.815 -153.4319
1318.677490 106.854 -153.3220
1328.233154 106.894 -153.2141
1337.858032 106.932 -153.1077
1347.552734 106.969 -152.9996
1357.317627 107.006 -152.8858
1367.153320 107.041 -152.7621
1377.060303 107.075 -152.6236
1387.039062 107.110 -152.4656
1397.090088 107.148 -152.2876
1407.213989 107.188 -152.0961
1417.411255 107.233 -151.9037
1427.682373 107.281 -151.7248
1438.027954 107.331 -151.5679
1448.448486 107.382 -151.4324
1458.944580 107.431 -151.3127
1469.516724 107.480 -151.2028
1480.165405 107.527 -151.0982
1490.891235 107.572 -150.9950
1501.694824 107.617 -150.8896
1512.576782 107.661 -150.7787
1523.537598 107.704 -150.6593
1534.577759 107.748 -150.5295
1545.697998 107.793 -150.3879
1556.898804 107.840 -150.2349
1568.180786 107.890 -150.0754
1579.544434 107.944 -149.9207
1590.990479 108.001 -149.7842
1602.519409 108.059 -149.6735
1614.131958 108.118 -149.5878
1625.828613 108.175 -149.5215
1637.609985 108.230 -149.4677
1649.476807 108.284 -149.4212
1661.429565 108.336 -149.3776
1673.468994 108.387 -149.3336
1685.595581 108.437 -149.2884
1697.810059 108.487 -149.2436
1710.113037 108.536 -149.2008
1722.505249 108.583 -149.1594
1734.987183 108.630 -149.1156
1747.559570 108.674 -149.0636
1760.223145 108.718 -148.9963
1772.978394 108.763 -148.9089
1785.826172 108.810 -148.8035
1798.766968 108.860 -148.6911
1811.801636 108.915 -148.5862
1824.930664 108.971 -148.4986
1838.154907 109.029 -148.4307
1851.474976 109.086 -148.3799
1864.891479 109.141 -148.3418
1878.405273 109.195 -148.3107
1892.016968 109.247 -148.2803
1905.727295 109.297 -148.2433
1919.536987 109.347 -148.1933
1933.446777 109.397 -148.1259
1947.457275 109.448 -148.0425
1961.569336 109.503 -147.9525
1975.783691 109.561 -147.8689
1990.101074 109.621 -147.8009
2004.522217 109.682 -147.7508
2019.047852 109.741 -147.7161
2033.678711 109.800 -147.6920
2048.415527 109.856 -147.6734
2063.259277 109.911 -147.6560
2078.210449 109.963 -147.6365
2093.270020 110.013 -147.6103
2108.438721 110.059 -147.5685
2123.717285 110.103 -147.4972
2139.106689 110.145 -147.3793
2154.607422 110.188 -147.1988
2170.220703 110.235 -146.9493
2185.947021 110.292 -146.6389
2201.787354 110.361 -146.2861
2217.742432 110.443 -145.9134
2233.812988 110.540 -145.5447
2250.000000 110.652 -145.2045
2266.304443 110.776 -144.9153
2282.727051 110.911 -144.6951
2299.268555 111.054 -144.5547
2315.929932 111.202 -144.4972
2332.712158 111.353 -144.5224
2349.615967 111.505 -144.6296
2366.642334 111.657 -144.8166
2383.791992 111.805 -145.0761
2401.065918 111.951 -145.3977
2418.465088 112.092 -145.7711
2435.990234 112.230 -146.1898
2453.642334 112.365 -146.6522
2471.422363 112.497 -147.1615
2489.331299 112.626 -147.7212
2507.370117 112.750 -148.3306
2525.539551 112.868 -148.9841
2543.840576 112.979 -149.6741
2562.274414 113.086 -150.3973
2580.841797 113.186 -151.1552
2599.543701 113.280 -151.9495
2618.381104 113.366 -152.7784
2637.354980 113.444 -153.6355
2656.466309 113.512 -154.5109
2675.716064 113.570 -155.3922
2695.105469 113.620 -156.2669
2714.635254 113.662 -157.1269
2734.306641 113.698 -157.9724
2754.120605 113.730 -158.8093
2774.078125 113.757 -159.6435
2794.180176 113.779 -160.4775
2814.427979 113.795 -161.3098
2834.822510 113.805 -162.1373
2855.364746 113.808 -162.9565
2876.055908 113.804 -163.7625
2896.896973 113.793 -164.5466
2917.889160 113.775 -165.2970
2939.033447 113.752 -166.0039
2960.330811 113.726 -166.6655
2981.782471 113.698 -167.2867
3003.389648 113.670 -167.8744
3025.153564 113.641 -168.4344
3047.075195 113.612 -168.9691
3069.155518 113.583 -169.4771
3091.395996 113.555 -169.9570
3113.797607 113.529 -170.4132
3136.361572 113.505 -170.8573
3159.088867 113.485 -171.3036
3181.980957 113.466 -171.7634
3205.038818 113.447 -172.2423
3228.263916 113.425 -172.7406
3251.657227 113.399 -173.2549
3275.219971 113.368 -173.7760
3298.953613 113.329 -174.2885
3322.859131 113.284 -174.7751
3346.937988 113.235 -175.2248
3371.191162 113.183 -175.6342
3395.620117 113.129 -176.0051
3420.226074 113.074 -176.3400
3445.010498 113.019 -176.6386
3469.974365 112.964 -176.8972
3495.119141 112.911 -177.1142
3520.446289 112.862 -177.2953
3545.956787 112.818 -177.4522
3571.652344 112.779 -177.5992
3597.533936 112.746 -177.7495
3623.603271 112.716 -177.9138
3649.861328 112.687 -178.0984
3676.309814 112.659 -178.3015
3702.949951 112.629 -178.5144
3729.782959 112.597 -178.7283
3756.810547 112.563 -178.9390
3784.033936 112.527 -179.1466
3811.454590 112.490 -179.3504
3839.073975 112.450 -179.5443
3866.893555 112.406 -179.7165
3894.914551 112.362 -179.8569
3923.138672 112.317 -179.9622
3951.567383 112.274 179.9640
3980.202148 112.235 179.9135
4009.044434 112.199 179.8760
4038.095703 112.166 179.8423
4067.357422 112.135 179.8098
4096.831055 112.105 179.7823
4126.518555 112.077 179.7645
4156.420898 112.049 179.7570
4186.540039 112.024 179.7575
4216.877441 112.000 179.7668
4247.434570 111.978 179.7913
4278.213379 111.958 179.8384
4309.214844 111.942 179.9102
4340.441406 111.933 -179.9994
4371.894043 111.933 -179.9036
4403.574707 111.940 -179.8204
4435.484863 111.956 -179.7670
4467.625977 111.978 -179.7545
4500.000000 112.006 -179.7884
4532.608887 112.037 -179.8743
4565.454102 112.071 179.9802
4598.537109 112.106 179.7696
4631.859863 112.139 179.4957
4665.424316 112.170 179.1669
4699.231934 112.196 178.7915
4733.284668 112.218 178.3745
4767.583984 112.237 177.9167
4802.131836 112.251 177.4156
4836.930176 112.259 176.8695
4871.980469 112.260 176.2825
4907.284668 112.253 175.6607
4942.844727 112.236 175.0096
4978.662598 112.210 174.3340
5014.740234 112.171 173.6439
5051.079102 112.120 172.9558
5087.681152 112.056 172.2883
5124.548828 111.982 171.6563
5161.683594 111.899 171.0674
5199.087402 111.809 170.5214
5236.762207 111.713 170.0150
5274.709961 111.612 169.5471
5312.932617 111.506 169.1174
5351.432129 111.394 168.7252
5390.210938 111.277 168.3712
5429.270508 111.154 168.0619
5468.613281 111.025 167.8089
5508.241211 110.891 167.6238
5548.156250 110.754 167.5135
5588.360352 110.616 167.4770
5628.855957 110.480 167.5088
5669.645020 110.345 167.6032
5710.729492 110.213 167.7541
5752.111816 110.085 167.9528
5793.793945 109.959 168.1920
5835.778320 109.835 168.4706
5878.066895 109.712 168.7945
5920.661621 109.592 169.1732
5963.564941 109.474 169.6133
6006.779297 109.360 170.1158
6050.307129 109.253 170.6784
6094.150391 109.153 171.2957
6138.311035 109.061 171.9582
6182.791992 108.977 172.6558
6227.595215 108.902 173.3831
6272.723145 108.834 174.1407
6318.177734 108.774 174.9326
6363.961914 108.723 175.7608
6410.077637 108.682 176.6237
6456.527832 108.653 177.5167
6503.314453 108.637 178.4316
6550.439941 108.634 179.3575
6597.907227 108.645 -179.7161
6645.718262 108.669 -178.7947
6693.875977 108.706 -177.8790
6742.382324 108.757 -176.9689
6791.240234 108.822 -176.0673
6840.452148 108.904 -175.1808
6890.020996 109.005 -174.3208
6939.948730 109.125 -173.5040
6990.238281 109.265 -172.7492
7040.892578 109.425 -172.0730
7091.913574 109.605 -171.4890
7143.304688 109.806 -171.0120
7195.067871 110.028 -170.6613
7247.206543 110.273 -170.4620
7299.722656 110.539 -170.4473
7352.619629 110.825 -170.6571
7405.899902 111.129 -171.1323
7459.565918 111.443 -171.9087
7513.621094 111.764 -173.0163
7568.067871 112.082 -174.4798
7622.909180 112.390 -176.3174
7678.147949 112.677 -178.5398
7733.787109 112.934 178.8511
7789.829102 113.147 175.8696
7846.277344 113.303 172.5518
7903.134766 113.391 168.9590
7960.404297 113.401 165.1728
8018.088867 113.327 161.2900
8076.191406 113.167 157.4134
8134.714844 112.923 153.6413
8193.662109 112.600 150.0611
8253.037109 112.206 146.7485
8312.841797 111.749 143.7666
8373.080078 111.240 141.1639
8433.754883 110.689 138.9736
8494.869141 110.109 137.2111
8556.426758 109.511 135.8712
8618.429688 108.905 134.9331
8680.882812 108.300 134.3674
8743.788086 107.701 134.1440
8807.149414 107.114 134.2366
8870.969727 106.541 134.6226
8935.251953 105.986 135.2784
9000.000000 105.452 136.1747
9065.217773 104.942 137.2805
9130.908203 104.456 138.5669
9197.074219 103.995 140.0118
9263.719727 103.558 141.6007
9330.848633 103.147 143.3198
9398.463867 102.762 145.1493
9466.569336 102.405 147.0640
9535.167969 102.073 149.0383
9604.263672 101.766 151.0536
9673.860352 101.482 153.1015
9743.960938 101.219 155.1779
9814.569336 100.978 157.2761
9885.689453 100.757 159.3864
9957.325195 100.557 161.4985
10029.480469 100.374 163.6092
10102.158203 100.209 165.7209
10175.362305 100.063 167.8345
10249.097656 99.935 169.9434
10323.367188 99.827 172.0344
10398.174805 99.739 174.0939
10473.524414 99.669 176.1149
10549.419922 99.617 178.0925
10625.865234 99.584 -179.9827
10702.864258 99.570 -178.1281
10780.421875 99.575 -176.3646
10858.541016 99.596 -174.7088
10937.226562 99.632 -173.1728
11016.482422 99.682 -171.7700
11096.312500 99.744 -170.5190
11176.720703 99.815 -169.4407
11257.711914 99.890 -168.5493
11339.290039 99.966 -167.8493
11421.458984 100.037 -167.3390
11504.223633 100.100 -167.0156
11587.587891 100.149 -166.8741
11671.556641 100.180 -166.9006
11756.133789 100.188 -167.0699
11841.323242 100.169 -167.3494
11927.129883 100.121 -167.7057
12013.558594 100.041 -168.1056
12100.614258 99.929 -168.5127
12188.300781 99.784 -168.8861
12276.622070 99.607 -169.1847
12365.583984 99.403 -169.3732
12455.190430 99.173 -169.4211
12545.446289 98.921 -169.2990
12636.355469 98.652 -168.9792
12727.923828 98.371 -168.4405
12820.155273 98.085 -167.6735
12913.055664 97.798 -166.6766
13006.628906 97.517 -165.4514
13100.879883 97.247 -164.0037
13195.814453 96.995 -162.3475
13291.436523 96.764 -160.5034
13387.751953 96.560 -158.4939
13484.764648 96.386 -156.3404
13582.480469 96.246 -154.0678
13680.904297 96.144 -151.7060
13780.041992 96.083 -149.2838
13879.897461 96.065 -146.8246
13980.476562 96.096 -144.3521
14081.785156 96.179 -141.8976
14183.827148 96.320 -139.5020
14286.609375 96.527 -137.2166
14390.135742 96.807 -135.1124
14494.413086 97.166 -133.2870
14599.445312 97.608 -131.8624
14705.239258 98.129 -130.9793
14811.799805 98.721 -130.7928
14919.131836 99.365 -131.4605
15027.242188 100.031 -133.1204
15136.135742 100.684 -135.8687
15245.818359 101.278 -139.7405
15356.295898 101.766 -144.6925
15467.574219 102.101 -150.5863
15579.658203 102.244 -157.1822
15692.554688 102.166 -164.1541
15806.269531 101.857 -171.1279
15920.808594 101.325 -177.7366
16036.177734 100.593 176.3275
16152.382812 99.698 171.2833
16269.429688 98.678 167.2544
16387.324219 97.576 164.2785
16506.074219 96.431 162.3192
16625.683594 95.281 161.2775
16746.160156 94.157 161.0077
16867.509766 93.084 161.3368
16989.738281 92.079 162.0786
17112.853516 91.147 163.0502
17236.859375 90.289 164.0880
17361.765625 89.497 165.0577
17487.576172 88.756 165.8586
17614.298828 88.049 166.4287
17741.939453 87.357 166.7463
17870.503906 86.660 166.8262
18000.000000 85.941 166.7168
18130.435547 85.182 166.4973
18261.816406 84.373 166.2670
18394.148438 83.505 166.1332
18527.439453 82.573 166.2074
18661.697266 81.577 166.6014
18796.927734 80.521 167.4202
18933.138672 79.410 168.7552
19070.335938 78.255 170.6776
19208.527344 77.068 173.2305
19347.720703 75.867 176.4197
19487.921875 74.677 -179.8151
19629.138672 73.541 -175.6576
19771.378906 72.529 -171.4952
19914.650391 71.744 -167.9743
20058.960938 71.308 -165.9039
