* Measurement data measured by REW V5.31.3
* Source: EXCL: Microphone (USB Sound Device        ), MICROPHONE (Master Volume), R, volume: 0.390
* Format: 256k Log Swept Sine, 1 sweep at -15.0 dBFS with no timing reference
* Dated: Apr 27, 2025 11:40:00 PM
* REW Settings:
*  C-weighting compensation: Off
*  Target level: 75.0 dB
* Note: Tanchjim Zero Ultima R
* Measurement: R Tanchjim Zero Ultima
* Smoothing: 1/12 octave
* Frequency Step: 96 ppo
* Start Frequency: 0.36621094 Hz
*
* Freq(Hz) SPL(dB) Phase(degrees)
0.366211 94.785 156.3452
0.368865 94.779 156.3206
0.371538 94.770 156.2839
0.374230 94.759 156.2376
0.376942 94.747 156.1843
0.379673 94.734 156.1257
0.382424 94.720 156.0630
0.385196 94.706 155.9968
0.387987 94.691 155.9275
0.390798 94.677 155.8555
0.393630 94.662 155.7806
0.396483 94.647 155.7031
0.399356 94.632 155.6229
0.402250 94.617 155.5400
0.405165 94.602 155.4544
0.408101 94.587 155.3661
0.411058 94.572 155.2749
0.414037 94.556 155.1810
0.417037 94.540 155.0843
0.420059 94.525 154.9847
0.423103 94.509 154.8823
0.426169 94.493 154.7770
0.429257 94.477 154.6687
0.432368 94.461 154.5575
0.435501 94.444 154.4433
0.438656 94.428 154.3261
0.441835 94.411 154.2059
0.445037 94.395 154.0827
0.448262 94.378 153.9564
0.451510 94.361 153.8269
0.454782 94.344 153.6944
0.458077 94.327 153.5587
0.461397 94.310 153.4199
0.464740 94.292 153.2779
0.468108 94.275 153.1327
0.471500 94.257 152.9843
0.474917 94.239 152.8327
0.478358 94.221 152.6778
0.481825 94.203 152.5196
0.485316 94.185 152.3582
0.488833 94.167 152.1935
0.492375 94.149 152.0255
0.495943 94.130 151.8542
0.499537 94.111 151.6795
0.503157 94.092 151.5016
0.506803 94.073 151.3203
0.510475 94.054 151.1357
0.514175 94.035 150.9477
0.517900 94.016 150.7565
0.521653 93.996 150.5619
0.525434 93.977 150.3640
0.529241 93.957 150.1627
0.533076 93.937 149.9582
0.536939 93.917 149.7504
0.540830 93.896 149.5393
0.544749 93.876 149.3250
0.548696 93.856 149.1074
0.552673 93.835 148.8866
0.556677 93.814 148.6627
0.560711 93.793 148.4356
0.564774 93.772 148.2054
0.568867 93.751 147.9721
0.572989 93.729 147.7358
0.577141 93.708 147.4966
0.581324 93.686 147.2544
0.585536 93.664 147.0093
0.589779 93.642 146.7614
0.594053 93.620 146.5108
0.598358 93.597 146.2575
0.602694 93.575 146.0016
0.607061 93.552 145.7432
0.611460 93.529 145.4824
0.615891 93.506 145.2193
0.620354 93.483 144.9539
0.624849 93.459 144.6865
0.629377 93.436 144.4170
0.633938 93.412 144.1456
0.638532 93.388 143.8725
0.643159 93.364 143.5978
0.647819 93.340 143.3216
0.652514 93.316 143.0441
0.657242 93.291 142.7654
0.662005 93.266 142.4858
0.666802 93.241 142.2054
0.671634 93.216 141.9243
0.676501 93.191 141.6428
0.681403 93.165 141.3612
0.686341 93.139 141.0795
0.691314 93.114 140.7981
0.696324 93.087 140.5171
0.701370 93.061 140.2368
0.706452 93.034 139.9572
0.711571 93.007 139.6786
0.716728 92.978 139.4008
0.721921 92.949 139.1236
0.727153 92.918 138.8464
0.732422 92.886 138.5686
0.737729 92.851 138.2890
0.743075 92.814 138.0065
0.748460 92.775 137.7201
0.753883 92.735 137.4290
0.759346 92.694 137.1327
0.764849 92.652 136.8308
0.770391 92.610 136.5231
0.775974 92.567 136.2094
0.781597 92.523 135.8895
0.787261 92.479 135.5635
0.792966 92.434 135.2311
0.798712 92.389 134.8923
0.804500 92.343 134.5471
0.810329 92.297 134.1954
0.816201 92.250 133.8372
0.822116 92.202 133.4724
0.828073 92.153 133.1009
0.834074 92.104 132.7228
0.840118 92.054 132.3380
0.846206 92.003 131.9465
0.852338 91.952 131.5483
0.858514 91.899 131.1434
0.864735 91.846 130.7318
0.871001 91.792 130.3134
0.877313 91.737 129.8885
0.883670 91.680 129.4569
0.890074 91.623 129.0188
0.896524 91.565 128.5742
0.903020 91.505 128.1232
0.909564 91.444 127.6659
0.916155 91.382 127.2024
0.922794 91.319 126.7330
0.929481 91.255 126.2577
0.936216 91.189 125.7768
0.943000 91.122 125.2904
0.949834 91.053 124.7988
0.956717 90.982 124.3023
0.963649 90.911 123.8012
0.970632 90.837 123.2958
0.977666 90.762 122.7865
0.984750 90.685 122.2737
0.991886 90.606 121.7578
0.999074 90.525 121.2393
1.006314 90.443 120.7188
1.013606 90.358 120.1967
1.020951 90.271 119.6739
1.028349 90.182 119.1508
1.035801 90.091 118.6283
1.043307 89.997 118.1071
1.050867 89.901 117.5879
1.058482 89.803 117.0717
1.066152 89.702 116.5592
1.073878 89.599 116.0512
1.081660 89.494 115.5482
1.089498 89.386 115.0504
1.097393 89.277 114.5580
1.105345 89.167 114.0704
1.113355 89.056 113.5868
1.121423 88.944 113.1066
1.129549 88.832 112.6289
1.137734 88.721 112.1531
1.145979 88.609 111.6786
1.154283 88.496 111.2049
1.162647 88.384 110.7316
1.171072 88.270 110.2581
1.179558 88.156 109.7841
1.188106 88.041 109.3091
1.196715 87.924 108.8326
1.205387 87.805 108.3542
1.214122 87.684 107.8734
1.222920 87.561 107.3897
1.231782 87.435 106.9025
1.240708 87.305 106.4114
1.249699 87.172 105.9157
1.258754 87.035 105.4148
1.267876 86.894 104.9081
1.277063 86.748 104.3949
1.286318 86.597 103.8746
1.295639 86.439 103.3465
1.305027 86.276 102.8098
1.314484 86.106 102.2637
1.324009 85.929 101.7075
1.333604 85.744 101.1404
1.343268 85.551 100.5614
1.353002 85.349 99.9699
1.362806 85.138 99.3650
1.372681 84.917 98.7458
1.382628 84.686 98.1116
1.392647 84.443 97.4616
1.402739 84.188 96.7952
1.412904 83.920 96.1119
1.423142 83.638 95.4114
1.433455 83.342 94.6939
1.443843 83.028 93.9596
1.454305 82.696 93.2095
1.464844 82.341 92.4447
1.475459 81.961 91.6666
1.486150 81.552 90.8761
1.496920 81.113 90.0736
1.507767 80.640 89.2583
1.518693 80.135 88.4291
1.529698 79.598 87.5838
1.540783 79.029 86.7197
1.551948 78.431 85.8334
1.563194 77.805 84.9207
1.574521 77.155 83.9766
1.585931 76.483 82.9952
1.597423 75.791 81.9692
1.608999 75.083 80.8898
1.620658 74.362 79.7462
1.632402 73.632 78.5249
1.644232 72.897 77.2089
1.656146 72.161 75.7768
1.668147 71.427 74.2007
1.680235 70.702 72.4441
1.692411 69.989 70.4582
1.704675 69.296 68.1769
1.717028 68.626 65.5088
1.729470 67.989 62.3245
1.742003 67.389 58.4381
1.754626 66.835 53.5787
1.767341 66.336 47.3516
1.780147 65.900 39.2014
1.793047 65.536 28.4417
1.806040 65.254 14.5413
1.819128 65.062 -2.1161
1.832310 64.966 -19.5874
1.845587 64.971 -35.3834
1.858961 65.077 -48.2492
1.872432 65.284 -58.2952
1.886001 65.585 -66.1413
1.899667 65.975 -72.3887
1.913433 66.445 -77.4867
1.927299 66.987 -81.7469
1.941265 67.590 -85.3820
1.955332 68.247 -88.5388
1.969501 68.948 -91.3203
1.983773 69.684 -93.8005
1.998148 70.445 -96.0332
2.012627 71.223 -98.0589
2.027212 72.009 -99.9079
2.041902 72.794 -101.6039
2.056698 73.571 -103.1654
2.071602 74.330 -104.6069
2.086614 75.064 -105.9404
2.101734 75.766 -107.1761
2.116964 76.429 -108.3228
2.132304 77.046 -109.3892
2.147756 77.614 -110.3846
2.163320 78.128 -111.3197
2.178996 78.589 -112.2079
2.194786 78.998 -113.0650
2.210690 79.358 -113.9085
2.226710 79.676 -114.7544
2.242845 79.955 -115.6146
2.259098 80.201 -116.4960
2.275468 80.415 -117.4011
2.291957 80.601 -118.3289
2.308566 80.761 -119.2766
2.325295 80.896 -120.2400
2.342145 81.008 -121.2139
2.359117 81.100 -122.1930
2.376212 81.172 -123.1714
2.393431 81.228 -124.1432
2.410775 81.268 -125.1023
2.428244 81.295 -126.0425
2.445840 81.312 -126.9578
2.463564 81.320 -127.8422
2.481416 81.321 -128.6907
2.499397 81.318 -129.4989
2.517509 81.311 -130.2649
2.535752 81.302 -130.9893
2.554127 81.291 -131.6767
2.572635 81.275 -132.3352
2.591277 81.255 -132.9752
2.610055 81.226 -133.6066
2.628968 81.189 -134.2367
2.648019 81.141 -134.8699
2.667208 81.083 -135.5074
2.686535 81.013 -136.1485
2.706003 80.932 -136.7905
2.725612 80.839 -137.4292
2.745363 80.735 -138.0592
2.765257 80.619 -138.6736
2.785295 80.493 -139.2645
2.805478 80.355 -139.8228
2.825808 80.207 -140.3382
2.846285 80.047 -140.7995
2.866910 79.875 -141.1952
2.887685 79.690 -141.5139
2.908611 79.490 -141.7456
2.929688 79.273 -141.8824
2.950917 79.035 -141.9184
2.972301 78.774 -141.8493
2.993839 78.490 -141.6704
3.015534 78.182 -141.3754
3.037386 77.853 -140.9561
3.059396 77.506 -140.4022
3.081565 77.147 -139.7008
3.103896 76.781 -138.8373
3.126388 76.414 -137.7953
3.149043 76.055 -136.5572
3.171862 75.711 -135.1044
3.194847 75.390 -133.4184
3.217998 75.101 -131.4811
3.241317 74.851 -129.2756
3.264805 74.650 -126.7867
3.288463 74.501 -124.0010
3.312293 74.407 -120.9100
3.336295 74.368 -117.5164
3.360471 74.382 -113.8427
3.384822 74.444 -109.9381
3.409350 74.551 -105.8778
3.434056 74.696 -101.7571
3.458940 74.874 -97.6804
3.484005 75.080 -93.7492
3.509252 75.309 -90.0505
3.534681 75.554 -86.6506
3.560295 75.813 -83.5919
3.586094 76.082 -80.8948
3.612081 76.359 -78.5604
3.638255 76.643 -76.5755
3.664620 76.937 -74.9163
3.691175 77.242 -73.5526
3.717923 77.561 -72.4521
3.744864 77.892 -71.5831
3.772001 78.235 -70.9158
3.799335 78.587 -70.4231
3.826866 78.942 -70.0806
3.854597 79.297 -69.8669
3.882529 79.646 -69.7637
3.910664 79.984 -69.7562
3.939002 80.307 -69.8327
3.967546 80.612 -69.9854
3.996296 80.896 -70.2101
4.025255 81.157 -70.5058
4.054423 81.396 -70.8732
4.083804 81.614 -71.3119
4.113396 81.812 -71.8180
4.143204 81.992 -72.3840
4.173227 82.155 -72.9995
4.203468 82.303 -73.6524
4.233928 82.436 -74.3302
4.264609 82.556 -75.0214
4.295512 82.662 -75.7164
4.326639 82.757 -76.4083
4.357992 82.840 -77.0946
4.389572 82.911 -77.7768
4.421380 82.970 -78.4599
4.453419 83.015 -79.1498
4.485691 83.047 -79.8495
4.518196 83.066 -80.5576
4.550936 83.073 -81.2690
4.583914 83.067 -81.9750
4.617131 83.049 -82.6649
4.650589 83.021 -83.3272
4.684289 82.983 -83.9509
4.718233 82.934 -84.5273
4.752424 82.875 -85.0506
4.786862 82.806 -85.5192
4.821549 82.726 -85.9340
4.856488 82.635 -86.2963
4.891680 82.535 -86.6062
4.927127 82.425 -86.8619
4.962831 82.310 -87.0593
4.998794 82.189 -87.1926
5.035017 82.066 -87.2543
5.071503 81.942 -87.2361
5.108253 81.818 -87.1294
5.145270 81.694 -86.9264
5.182555 81.571 -86.6216
5.220110 81.448 -86.2137
5.257937 81.327 -85.7061
5.296038 81.211 -85.1064
5.334415 81.101 -84.4255
5.373071 81.002 -83.6768
5.412006 80.915 -82.8734
5.451224 80.844 -82.0274
5.490725 80.791 -81.1477
5.530514 80.758 -80.2409
5.570590 80.744 -79.3147
5.610957 80.747 -78.3807
5.651616 80.768 -77.4559
5.692570 80.803 -76.5613
5.733821 80.852 -75.7193
5.775370 80.912 -74.9508
5.817221 80.983 -74.2727
5.859375 81.063 -73.6961
5.901834 81.153 -73.2257
5.944602 81.252 -72.8619
5.987679 81.358 -72.6030
6.031068 81.469 -72.4469
6.074771 81.582 -72.3918
6.118792 81.694 -72.4367
6.163131 81.802 -72.5815
6.207792 81.904 -72.8261
6.252776 82.000 -73.1701
6.298086 82.088 -73.6105
6.343725 82.168 -74.1404
6.389694 82.240 -74.7496
6.435996 82.304 -75.4261
6.482634 82.358 -76.1580
6.529610 82.402 -76.9356
6.576926 82.435 -77.7532
6.624585 82.457 -78.6083
6.672590 82.467 -79.4993
6.720942 82.466 -80.4223
6.769645 82.455 -81.3695
6.818700 82.434 -82.3301
6.868111 82.403 -83.2921
6.917881 82.363 -84.2450
6.968010 82.314 -85.1818
7.018504 82.256 -86.0988
7.069362 82.191 -86.9940
7.120590 82.119 -87.8642
7.172189 82.042 -88.7045
7.224161 81.961 -89.5079
7.276511 81.879 -90.2665
7.329239 81.796 -90.9739
7.382350 81.713 -91.6258
7.435845 81.632 -92.2218
7.489729 81.554 -92.7644
7.544002 81.481 -93.2577
7.598669 81.416 -93.7065
7.653732 81.360 -94.1146
7.709194 81.316 -94.4850
7.765058 81.283 -94.8215
7.821327 81.263 -95.1306
7.878004 81.256 -95.4224
7.935091 81.262 -95.7097
7.992592 81.282 -96.0057
8.050510 81.316 -96.3209
8.108847 81.363 -96.6628
8.167607 81.423 -97.0365
8.226793 81.495 -97.4470
8.286408 81.576 -97.8996
8.346454 81.665 -98.3999
8.406936 81.761 -98.9520
8.467856 81.862 -99.5571
8.529218 81.966 -100.2136
8.591024 82.073 -100.9168
8.653278 82.181 -101.6611
8.715983 82.289 -102.4406
8.779143 82.394 -103.2502
8.842760 82.497 -104.0847
8.906839 82.597 -104.9382
8.971381 82.693 -105.8026
9.036392 82.785 -106.6686
9.101873 82.873 -107.5270
9.167829 82.957 -108.3704
9.234263 83.036 -109.1929
9.301178 83.111 -109.9894
9.368578 83.183 -110.7541
9.436467 83.252 -111.4811
9.504847 83.319 -112.1650
9.573723 83.385 -112.8025
9.643099 83.449 -113.3920
9.712976 83.514 -113.9334
9.783361 83.579 -114.4274
9.854255 83.646 -114.8750
9.925663 83.716 -115.2778
9.997588 83.788 -115.6388
10.070035 83.862 -115.9620
10.143007 83.940 -116.2527
10.216507 84.021 -116.5164
10.290540 84.105 -116.7580
10.365109 84.192 -116.9818
10.440219 84.282 -117.1921
10.515873 84.373 -117.3929
10.592076 84.465 -117.5882
10.668830 84.557 -117.7806
10.746141 84.650 -117.9717
10.824012 84.741 -118.1621
10.902447 84.831 -118.3517
10.981451 84.918 -118.5400
11.061027 85.003 -118.7261
11.141180 85.085 -118.9086
11.221913 85.164 -119.0857
11.303232 85.239 -119.2552
11.385140 85.311 -119.4154
11.467641 85.379 -119.5650
11.550741 85.444 -119.7031
11.634442 85.507 -119.8290
11.718750 85.567 -119.9426
11.803669 85.624 -120.0443
11.889203 85.679 -120.1351
11.975357 85.732 -120.2167
12.062136 85.783 -120.2910
12.149543 85.832 -120.3601
12.237583 85.880 -120.4259
12.326262 85.925 -120.4906
12.415583 85.969 -120.5562
12.505552 86.010 -120.6243
12.596172 86.048 -120.6959
12.687449 86.084 -120.7715
12.779387 86.116 -120.8513
12.871992 86.146 -120.9350
12.965268 86.172 -121.0221
13.059220 86.195 -121.1115
13.153852 86.214 -121.2023
13.249170 86.231 -121.2937
13.345179 86.245 -121.3851
13.441884 86.257 -121.4763
13.539289 86.266 -121.5679
13.637401 86.275 -121.6608
13.736223 86.282 -121.7568
13.835761 86.289 -121.8582
13.936021 86.296 -121.9679
14.037007 86.302 -122.0890
14.138725 86.309 -122.2249
14.241180 86.316 -122.3786
14.344377 86.323 -122.5531
14.448323 86.329 -122.7505
14.553021 86.335 -122.9721
14.658478 86.340 -123.2184
14.764700 86.344 -123.4889
14.871691 86.346 -123.7823
14.979457 86.347 -124.0962
15.088005 86.346 -124.4278
15.197339 86.343 -124.7741
15.307465 86.339 -125.1318
15.418389 86.335 -125.4978
15.530117 86.330 -125.8695
15.642655 86.326 -126.2452
15.756008 86.324 -126.6236
15.870182 86.323 -127.0046
15.985184 86.324 -127.3888
16.101019 86.329 -127.7775
16.217694 86.337 -128.1724
16.335214 86.348 -128.5752
16.453586 86.363 -128.9877
16.572815 86.382 -129.4108
16.692909 86.403 -129.8447
16.813872 86.427 -130.2889
16.935713 86.453 -130.7417
17.058436 86.480 -131.2005
17.182048 86.509 -131.6617
17.306556 86.538 -132.1215
17.431967 86.569 -132.5759
17.558286 86.600 -133.0207
17.685521 86.632 -133.4523
17.813677 86.666 -133.8681
17.942762 86.701 -134.2658
18.072783 86.738 -134.6443
18.203746 86.776 -135.0036
18.335658 86.816 -135.3439
18.468526 86.858 -135.6665
18.602356 86.902 -135.9724
18.737156 86.947 -136.2629
18.872934 86.992 -136.5391
19.009695 87.038 -136.8017
19.147447 87.084 -137.0510
19.286197 87.129 -137.2870
19.425953 87.173 -137.5096
19.566721 87.217 -137.7185
19.708510 87.259 -137.9136
19.851326 87.299 -138.0951
19.995177 87.338 -138.2634
20.140070 87.375 -138.4194
20.286013 87.410 -138.5643
20.433014 87.444 -138.6992
20.581080 87.475 -138.8257
20.730219 87.504 -138.9451
20.880439 87.530 -139.0584
21.031747 87.555 -139.1667
21.184152 87.576 -139.2711
21.337661 87.595 -139.3725
21.492282 87.612 -139.4722
21.648024 87.627 -139.5716
21.804895 87.640 -139.6728
21.962902 87.651 -139.7780
22.122054 87.660 -139.8896
22.282360 87.668 -140.0101
22.443827 87.674 -140.1416
22.606464 87.679 -140.2857
22.770280 87.682 -140.4433
22.935283 87.683 -140.6145
23.101481 87.682 -140.7987
23.268884 87.680 -140.9946
23.437500 87.677 -141.2010
23.607338 87.673 -141.4165
23.778406 87.669 -141.6404
23.950714 87.665 -141.8724
24.124271 87.662 -142.1130
24.299086 87.660 -142.3629
24.475167 87.660 -142.6231
24.652524 87.662 -142.8943
24.831166 87.665 -143.1766
25.011103 87.670 -143.4695
25.192344 87.677 -143.7713
25.374898 87.685 -144.0797
25.558775 87.695 -144.3919
25.743984 87.706 -144.7049
25.930536 87.719 -145.0159
26.118439 87.733 -145.3224
26.307704 87.749 -145.6225
26.498341 87.767 -145.9149
26.690359 87.786 -146.1985
26.883768 87.806 -146.4723
27.078579 87.828 -146.7356
27.274801 87.851 -146.9874
27.472446 87.874 -147.2270
27.671522 87.898 -147.4537
27.872042 87.921 -147.6672
28.074014 87.945 -147.8673
28.277450 87.968 -148.0547
28.482360 87.991 -148.2299
28.688755 88.013 -148.3941
28.896645 88.034 -148.5482
29.106042 88.053 -148.6934
29.316957 88.072 -148.8306
29.529400 88.088 -148.9609
29.743382 88.103 -149.0858
29.958915 88.116 -149.2069
30.176009 88.128 -149.3259
30.394677 88.137 -149.4449
30.614929 88.146 -149.5657
30.836778 88.152 -149.6898
31.060234 88.157 -149.8183
31.285309 88.161 -149.9518
31.512015 88.163 -150.0907
31.740364 88.164 -150.2353
31.970368 88.164 -150.3862
32.202039 88.164 -150.5445
32.435388 88.165 -150.7110
32.670428 88.165 -150.8868
32.907171 88.166 -151.0723
33.145630 88.167 -151.2675
33.385817 88.169 -151.4711
33.627745 88.172 -151.6818
33.871425 88.174 -151.8974
34.116871 88.178 -152.1161
34.364096 88.183 -152.3361
34.613113 88.188 -152.5560
34.863934 88.195 -152.7749
35.116572 88.202 -152.9915
35.371041 88.210 -153.2046
35.627354 88.219 -153.4127
35.885525 88.228 -153.6144
36.145566 88.237 -153.8082
36.407492 88.246 -153.9929
36.671316 88.256 -154.1682
36.937051 88.265 -154.3340
37.204712 88.274 -154.4911
37.474313 88.282 -154.6405
37.745867 88.291 -154.7835
38.019389 88.299 -154.9217
38.294893 88.306 -155.0564
38.572394 88.312 -155.1889
38.851905 88.317 -155.3202
39.133442 88.321 -155.4513
39.417019 88.325 -155.5827
39.702651 88.327 -155.7150
39.990353 88.328 -155.8486
40.280140 88.329 -155.9839
40.572026 88.329 -156.1208
40.866028 88.329 -156.2597
41.162160 88.329 -156.4004
41.460438 88.329 -156.5432
41.760877 88.329 -156.6884
42.063494 88.330 -156.8362
42.368303 88.331 -156.9869
42.675322 88.333 -157.1403
42.984565 88.335 -157.2957
43.296048 88.337 -157.4517
43.609789 88.339 -157.6065
43.925804 88.341 -157.7587
44.244108 88.344 -157.9075
44.564719 88.346 -158.0527
44.887654 88.348 -158.1947
45.212928 88.351 -158.3340
45.540560 88.353 -158.4708
45.870565 88.355 -158.6053
46.202962 88.357 -158.7374
46.537768 88.358 -158.8672
46.875000 88.358 -158.9948
47.214676 88.359 -159.1206
47.556813 88.359 -159.2452
47.901429 88.358 -159.3695
48.248542 88.358 -159.4940
48.598171 88.358 -159.6193
48.950334 88.357 -159.7453
49.305048 88.356 -159.8714
49.662333 88.355 -159.9964
50.022206 88.354 -160.1191
50.384688 88.353 -160.2389
50.749796 88.353 -160.3557
51.117550 88.353 -160.4701
51.487969 88.353 -160.5824
51.861072 88.353 -160.6929
52.236879 88.353 -160.8012
52.615409 88.353 -160.9070
52.996681 88.353 -161.0100
53.380717 88.353 -161.1105
53.767536 88.353 -161.2087
54.157158 88.352 -161.3055
54.549603 88.352 -161.4015
54.944892 88.351 -161.4981
55.343045 88.351 -161.5967
55.744084 88.351 -161.6989
56.148028 88.351 -161.8060
56.554900 88.351 -161.9185
56.964720 88.351 -162.0356
57.377510 88.350 -162.1553
57.793291 88.349 -162.2750
58.212085 88.347 -162.3920
58.633914 88.346 -162.5053
59.058799 88.345 -162.6156
59.486764 88.344 -162.7248
59.917829 88.344 -162.8353
60.352019 88.343 -162.9482
60.789354 88.341 -163.0628
61.229859 88.339 -163.1767
61.673556 88.335 -163.2875
62.120468 88.330 -163.3942
62.570618 88.325 -163.4973
63.024031 88.320 -163.5983
63.480729 88.314 -163.6991
63.940736 88.308 -163.8008
64.404077 88.302 -163.9035
64.870776 88.296 -164.0063
65.340856 88.290 -164.1080
65.814343 88.284 -164.2072
66.291261 88.278 -164.3036
66.771635 88.273 -164.3975
67.255489 88.268 -164.4894
67.742850 88.263 -164.5800
68.233743 88.259 -164.6693
68.728193 88.255 -164.7575
69.226226 88.250 -164.8444
69.727867 88.245 -164.9298
70.233144 88.240 -165.0132
70.742083 88.234 -165.0943
71.254709 88.227 -165.1738
71.771050 88.221 -165.2523
72.291132 88.213 -165.3302
72.814984 88.206 -165.4069
73.342631 88.199 -165.4820
73.874102 88.191 -165.5551
74.409424 88.184 -165.6264
74.948626 88.178 -165.6967
75.491734 88.172 -165.7671
76.038779 88.167 -165.8383
76.589787 88.163 -165.9110
77.144788 88.158 -165.9857
77.703811 88.154 -166.0625
78.266885 88.150 -166.1419
78.834039 88.146 -166.2245
79.405303 88.141 -166.3116
79.980706 88.137 -166.4039
80.560280 88.132 -166.5018
81.144053 88.127 -166.6047
81.732056 88.120 -166.7119
82.324320 88.113 -166.8229
82.920876 88.104 -166.9365
83.521755 88.094 -167.0511
84.126988 88.081 -167.1636
84.736607 88.067 -167.2702
85.350643 88.051 -167.3678
85.969129 88.034 -167.4541
86.592097 88.016 -167.5285
87.219579 87.998 -167.5919
87.851608 87.980 -167.6465
88.488217 87.963 -167.6954
89.129439 87.946 -167.7410
89.775308 87.930 -167.7848
90.425856 87.914 -167.8267
91.081119 87.899 -167.8663
91.741131 87.884 -167.9034
92.405925 87.869 -167.9384
93.075536 87.854 -167.9717
93.750000 87.839 -168.0038
94.429351 87.824 -168.0356
95.113625 87.810 -168.0683
95.802858 87.795 -168.1024
96.497085 87.779 -168.1378
97.196342 87.764 -168.1735
97.900667 87.748 -168.2083
98.610096 87.732 -168.2404
99.324665 87.716 -168.2688
100.044413 87.700 -168.2928
100.769376 87.685 -168.3124
101.499592 87.669 -168.3275
102.235100 87.654 -168.3386
102.975938 87.639 -168.3464
103.722144 87.624 -168.3525
104.473757 87.610 -168.3591
105.230817 87.595 -168.3683
105.993363 87.581 -168.3812
106.761435 87.566 -168.3983
107.535072 87.552 -168.4202
108.314315 87.538 -168.4477
109.099206 87.524 -168.4813
109.889783 87.510 -168.5202
110.686090 87.495 -168.5628
111.488167 87.480 -168.6069
112.296056 87.464 -168.6505
113.109800 87.445 -168.6908
113.929440 87.424 -168.7246
114.755020 87.401 -168.7482
115.586582 87.374 -168.7584
116.424170 87.345 -168.7518
117.267827 87.314 -168.7268
118.117598 87.284 -168.6842
118.973527 87.256 -168.6289
119.835658 87.232 -168.5711
120.704037 87.212 -168.5226
121.578708 87.195 -168.4888
122.459718 87.180 -168.4664
123.347111 87.166 -168.4482
124.240935 87.151 -168.4283
125.141236 87.137 -168.4034
126.048061 87.121 -168.3736
126.961458 87.104 -168.3404
127.881473 87.086 -168.3070
128.808154 87.067 -168.2767
129.741551 87.048 -168.2518
130.681712 87.028 -168.2336
131.628686 87.008 -168.2215
132.582521 86.989 -168.2132
133.543269 86.969 -168.2040
134.510979 86.948 -168.1892
135.485701 86.928 -168.1662
136.467486 86.907 -168.1357
137.456386 86.885 -168.1004
138.452451 86.862 -168.0627
139.455735 86.839 -168.0243
140.466288 86.815 -167.9855
141.484165 86.791 -167.9462
142.509418 86.767 -167.9059
143.542100 86.743 -167.8641
144.582265 86.718 -167.8208
145.629968 86.693 -167.7758
146.685262 86.668 -167.7293
147.748204 86.641 -167.6809
148.818849 86.614 -167.6297
149.897251 86.585 -167.5739
150.983469 86.556 -167.5113
152.077557 86.527 -167.4398
153.179574 86.498 -167.3580
154.289576 86.470 -167.2662
155.407622 86.443 -167.1667
156.533770 86.418 -167.0635
157.668078 86.394 -166.9613
158.810606 86.371 -166.8648
159.961413 86.348 -166.7758
161.120559 86.325 -166.6934
162.288105 86.301 -166.6149
163.464112 86.277 -166.5378
164.648640 86.251 -166.4607
165.841752 86.223 -166.3829
167.043510 86.194 -166.3035
168.253976 86.163 -166.2210
169.473213 86.131 -166.1328
170.701286 86.098 -166.0372
171.938258 86.066 -165.9333
173.184194 86.035 -165.8216
174.439158 86.004 -165.7040
175.703216 85.973 -165.5834
176.976434 85.942 -165.4637
178.258878 85.911 -165.3490
179.550615 85.878 -165.2415
180.851713 85.844 -165.1407
182.162239 85.809 -165.0432
183.482262 85.773 -164.9440
184.811850 85.737 -164.8390
186.151073 85.700 -164.7265
187.500000 85.663 -164.6088
188.858702 85.625 -164.4887
190.227250 85.586 -164.3673
191.605715 85.546 -164.2434
192.994169 85.504 -164.1140
194.392685 85.460 -163.9755
195.801334 85.413 -163.8248
197.220191 85.364 -163.6603
198.649330 85.312 -163.4827
200.088825 85.258 -163.2956
201.538751 85.202 -163.1026
202.999184 85.145 -162.9062
204.470200 85.086 -162.7096
205.951875 85.025 -162.5182
207.444287 84.962 -162.3386
208.947514 84.898 -162.1706
210.461634 84.831 -161.9966
211.986726 84.761 -161.7753
213.522869 84.687 -161.4483
215.070144 84.612 -160.9652
216.628631 84.536 -160.3159
218.198411 84.463 -159.5388
219.779567 84.398 -158.6972
221.372180 84.344 -157.8454
222.976334 84.306 -157.0043
224.592112 84.286 -156.1520
226.219600 84.285 -155.2380
227.858880 84.302 -154.2217
229.510039 84.340 -153.1235
231.173164 84.399 -152.0286
232.848340 84.476 -151.0372
234.535655 84.567 -150.2213
236.235197 84.668 -149.6117
237.947054 84.771 -149.2052
239.671317 84.869 -148.9764
241.408074 84.958 -148.8881
243.157416 85.032 -148.9026
244.919435 85.091 -148.9868
246.694223 85.135 -149.1120
248.481871 85.165 -149.2527
250.282473 85.182 -149.3880
252.096123 85.189 -149.5027
253.922915 85.189 -149.5882
255.762945 85.183 -149.6432
257.616309 85.175 -149.6723
259.483103 85.164 -149.6829
261.363424 85.151 -149.6806
263.257372 85.134 -149.6662
265.165043 85.113 -149.6367
267.086538 85.089 -149.5878
269.021957 85.063 -149.5160
270.971401 85.035 -149.4199
272.934972 85.006 -149.2996
274.912771 84.976 -149.1566
276.904902 84.948 -148.9930
278.911469 84.920 -148.8110
280.932577 84.894 -148.6131
282.968330 84.870 -148.4041
285.018835 84.848 -148.1909
287.084199 84.827 -147.9816
289.164530 84.807 -147.7830
291.259935 84.786 -147.5966
293.370525 84.764 -147.4180
295.496408 84.738 -147.2383
297.637697 84.710 -147.0486
299.794503 84.680 -146.8435
301.966937 84.649 -146.6221
304.155114 84.617 -146.3861
306.359147 84.586 -146.1381
308.579152 84.555 -145.8808
310.815244 84.525 -145.6169
313.067539 84.495 -145.3476
315.336156 84.465 -145.0723
317.621211 84.433 -144.7883
319.922826 84.401 -144.4934
322.241118 84.369 -144.1874
324.576210 84.337 -143.8716
326.928223 84.306 -143.5479
329.297280 84.277 -143.2176
331.683504 84.249 -142.8822
334.087019 84.222 -142.5434
336.507952 84.196 -142.2032
338.946427 84.170 -141.8627
341.402572 84.144 -141.5218
343.876516 84.117 -141.1794
346.368387 84.090 -140.8333
348.878315 84.063 -140.4813
351.406431 84.036 -140.1223
353.952867 84.009 -139.7568
356.517756 83.983 -139.3857
359.101230 83.957 -139.0099
361.703426 83.931 -138.6299
364.324478 83.905 -138.2463
366.964523 83.880 -137.8591
369.623699 83.855 -137.4681
372.302145 83.830 -137.0726
375.000000 83.805 -136.6718
377.717405 83.780 -136.2654
380.454501 83.755 -135.8536
383.211431 83.730 -135.4371
385.988339 83.706 -135.0167
388.785369 83.682 -134.5929
391.602668 83.658 -134.1653
394.440383 83.634 -133.7340
397.298660 83.611 -133.2992
400.177650 83.589 -132.8615
403.077502 83.567 -132.4217
405.998368 83.546 -131.9807
408.940400 83.524 -131.5381
411.903750 83.502 -131.0921
414.888575 83.480 -130.6394
417.895028 83.457 -130.1770
420.923268 83.434 -129.7035
423.973452 83.412 -129.2207
427.045738 83.392 -128.7322
430.140287 83.373 -128.2416
433.257261 83.356 -127.7513
436.396822 83.340 -127.2623
439.559133 83.326 -126.7746
442.744360 83.313 -126.2888
445.952668 83.301 -125.8075
449.184225 83.290 -125.3359
452.439199 83.280 -124.8791
455.717760 83.269 -124.4393
459.020079 83.256 -124.0122
462.346327 83.239 -123.5867
465.696680 83.220 -123.1510
469.071310 83.199 -122.6981
472.470394 83.176 -122.2266
475.894109 83.154 -121.7402
479.342634 83.132 -121.2450
482.816148 83.111 -120.7474
486.314833 83.090 -120.2491
489.838871 83.068 -119.7452
493.388445 83.046 -119.2272
496.963741 83.023 -118.6908
500.564945 83.002 -118.1399
504.192245 82.983 -117.5823
507.845830 82.965 -117.0254
511.525890 82.948 -116.4722
515.232618 82.931 -115.9221
518.966206 82.913 -115.3714
522.726849 82.895 -114.8151
526.514743 82.876 -114.2488
530.330086 82.858 -113.6703
534.173076 82.841 -113.0819
538.043915 82.824 -112.4881
541.942803 82.809 -111.8913
545.869944 82.794 -111.2905
549.825542 82.780 -110.6852
553.809805 82.767 -110.0774
557.822939 82.755 -109.4704
561.865154 82.744 -108.8663
565.936660 82.732 -108.2645
570.037671 82.720 -107.6622
574.168399 82.707 -107.0555
578.329060 82.694 -106.4422
582.519870 82.680 -105.8223
586.741049 82.667 -105.1958
590.992817 82.653 -104.5604
595.275394 82.640 -103.9137
599.589005 82.628 -103.2568
603.933874 82.617 -102.5944
608.310228 82.607 -101.9308
612.718295 82.598 -101.2674
617.158304 82.587 -100.6010
621.630488 82.576 -99.9248
626.135079 82.565 -99.2321
630.672311 82.555 -98.5212
635.242423 82.547 -97.7969
639.845651 82.541 -97.0662
644.482237 82.538 -96.3316
649.152421 82.537 -95.5925
653.856447 82.538 -94.8499
658.594560 82.543 -94.1104
663.367008 82.550 -93.3841
668.174039 82.559 -92.6793
673.015903 82.567 -91.9957
677.892854 82.573 -91.3250
682.805145 82.577 -90.6571
687.753032 82.579 -89.9836
692.736774 82.580 -89.2984
697.756631 82.580 -88.5967
702.812863 82.580 -87.8779
707.905735 82.580 -87.1460
713.035511 82.582 -86.4064
718.202461 82.584 -85.6626
723.406852 82.587 -84.9148
728.648956 82.590 -84.1620
733.929047 82.594 -83.4031
739.247399 82.599 -82.6381
744.604290 82.604 -81.8671
750.000000 82.610 -81.0895
755.434809 82.618 -80.3048
760.909001 82.627 -79.5126
766.422861 82.637 -78.7128
771.976677 82.649 -77.9058
777.570739 82.662 -77.0925
783.205337 82.676 -76.2735
788.880766 82.691 -75.4482
794.597321 82.708 -74.6137
800.355301 82.726 -73.7676
806.155005 82.747 -72.9112
811.996736 82.771 -72.0506
817.880799 82.800 -71.1955
823.807501 82.831 -70.3566
829.777150 82.865 -69.5426
835.790057 82.899 -68.7555
841.846536 82.931 -67.9870
847.946903 82.962 -67.2255
854.091476 82.992 -66.4622
860.280575 83.021 -65.6935
866.514523 83.049 -64.9161
872.793644 83.078 -64.1268
879.118267 83.108 -63.3257
885.488720 83.139 -62.5173
891.905336 83.172 -61.7057
898.368450 83.205 -60.8920
904.878398 83.240 -60.0744
911.435520 83.277 -59.2523
918.040157 83.315 -58.4274
924.692655 83.355 -57.6023
931.393359 83.398 -56.7802
938.142619 83.443 -55.9643
944.940787 83.488 -55.1562
951.788218 83.535 -54.3549
958.685268 83.582 -53.5584
965.632296 83.629 -52.7646
972.629666 83.677 -51.9714
979.677741 83.726 -51.1785
986.776890 83.776 -50.3864
993.927482 83.826 -49.5941
1001.129891 83.877 -48.7975
1008.384491 83.930 -47.9931
1015.691660 83.985 -47.1820
1023.051781 84.044 -46.3692
1030.465236 84.107 -45.5622
1037.932411 84.174 -44.7729
1045.453698 84.245 -44.0140
1053.029486 84.316 -43.2914
1060.660172 84.386 -42.6016
1068.346153 84.455 -41.9357
1076.087829 84.522 -41.2841
1083.885605 84.587 -40.6399
1091.739887 84.651 -40.0006
1099.651084 84.714 -39.3659
1107.619609 84.777 -38.7355
1115.645878 84.838 -38.1087
1123.730308 84.899 -37.4842
1131.873321 84.959 -36.8608
1140.075341 85.018 -36.2371
1148.336797 85.077 -35.6124
1156.658119 85.136 -34.9858
1165.039741 85.194 -34.3563
1173.482099 85.254 -33.7223
1181.985634 85.316 -33.0842
1190.550789 85.379 -32.4482
1199.178011 85.446 -31.8259
1207.867749 85.513 -31.2293
1216.620457 85.581 -30.6643
1225.436590 85.646 -30.1268
1234.316609 85.708 -29.6078
1243.260976 85.767 -29.0975
1252.270157 85.823 -28.5877
1261.344623 85.876 -28.0742
1270.484846 85.928 -27.5557
1279.691303 85.977 -27.0310
1288.964474 86.026 -26.4982
1298.304842 86.074 -25.9576
1307.712894 86.122 -25.4115
1317.189120 86.169 -24.8632
1326.734016 86.216 -24.3148
1336.348077 86.262 -23.7660
1346.031806 86.307 -23.2138
1355.785708 86.350 -22.6544
1365.610290 86.392 -22.0836
1375.506065 86.433 -21.4964
1385.473549 86.474 -20.8873
1395.513261 86.517 -20.2551
1405.625726 86.563 -19.6058
1415.811469 86.612 -18.9519
1426.071023 86.665 -18.3087
1436.404921 86.721 -17.6858
1446.813703 86.776 -17.0836
1457.297912 86.830 -16.4962
1467.858093 86.884 -15.9175
1478.494798 86.936 -15.3428
1489.208581 86.986 -14.7684
1500.000000 87.036 -14.1906
1510.869618 87.084 -13.6052
1521.818002 87.132 -13.0087
1532.845723 87.180 -12.3984
1543.953355 87.230 -11.7723
1555.141477 87.281 -11.1304
1566.410674 87.335 -10.4777
1577.761531 87.393 -9.8260
1589.194642 87.454 -9.1903
1600.710601 87.518 -8.5800
1612.310010 87.581 -7.9954
1623.993473 87.644 -7.4304
1635.761599 87.705 -6.8771
1647.615002 87.764 -6.3285
1659.554299 87.821 -5.7795
1671.580114 87.878 -5.2267
1683.693072 87.934 -4.6698
1695.893807 87.991 -4.1111
1708.182952 88.047 -3.5529
1720.561150 88.102 -2.9950
1733.029045 88.157 -2.4338
1745.587288 88.211 -1.8638
1758.236533 88.265 -1.2779
1770.977440 88.320 -0.6705
1783.810673 88.377 -0.0429
1796.736900 88.439 0.5944
1809.756796 88.505 1.2262
1822.871040 88.575 1.8406
1836.080315 88.647 2.4338
1849.385310 88.719 3.0071
1862.786718 88.792 3.5642
1876.285239 88.864 4.1096
1889.881575 88.936 4.6484
1903.576436 89.008 5.1858
1917.370535 89.080 5.7270
1931.264593 89.154 6.2751
1945.259332 89.231 6.8282
1959.355483 89.312 7.3763
1973.553781 89.397 7.9042
1987.854965 89.486 8.3997
2002.259781 89.575 8.8582
2016.768981 89.665 9.2817
2031.383320 89.754 9.6750
2046.103561 89.841 10.0435
2060.930471 89.927 10.3912
2075.864823 90.012 10.7190
2090.907395 90.095 11.0268
2106.058972 90.176 11.3164
2121.320344 90.254 11.5930
2136.692305 90.329 11.8649
2152.175658 90.403 12.1402
2167.771210 90.477 12.4211
2183.479774 90.552 12.7001
2199.302169 90.628 12.9650
2215.239219 90.706 13.2059
2231.291755 90.782 13.4185
2247.460615 90.857 13.6036
2263.746641 90.929 13.7658
2280.150683 90.998 13.9130
2296.673595 91.064 14.0541
2313.316238 91.127 14.1966
2330.079481 91.190 14.3425
2346.964198 91.254 14.4849
2363.971268 91.318 14.6121
2381.101578 91.382 14.7147
2398.356022 91.445 14.7890
2415.735498 91.505 14.8363
2433.240913 91.561 14.8607
2450.873180 91.614 14.8666
2468.633217 91.663 14.8569
2486.521951 91.707 14.8354
2504.540314 91.746 14.8089
2522.689246 91.780 14.7873
2540.969692 91.810 14.7804
2559.382606 91.838 14.7908
2577.928947 91.864 14.8124
2596.609683 91.891 14.8358
2615.425787 91.916 14.8539
2634.378241 91.940 14.8640
2653.468031 91.961 14.8686
2672.696154 91.978 14.8742
2692.063613 91.993 14.8896
2711.571415 92.006 14.9202
2731.220579 92.019 14.9630
2751.012130 92.033 15.0088
2770.947098 92.048 15.0474
2791.026522 92.062 15.0719
2811.251451 92.075 15.0800
2831.622938 92.086 15.0718
2852.142045 92.094 15.0485
2872.809842 92.098 15.0132
2893.627406 92.097 14.9731
2914.595823 92.091 14.9391
2935.716186 92.082 14.9211
2956.989596 92.069 14.9217
2978.417161 92.055 14.9367
3000.000000 92.040 14.9599
3021.739237 92.023 14.9874
3043.636005 92.004 15.0200
3065.691446 91.982 15.0638
3087.906710 91.958 15.1270
3110.282955 91.933 15.2133
3132.821347 91.909 15.3186
3155.523062 91.886 15.4337
3178.389283 91.865 15.5497
3201.421202 91.844 15.6598
3224.620020 91.823 15.7598
3247.986946 91.800 15.8473
3271.523198 91.775 15.9242
3295.230004 91.746 15.9986
3319.108599 91.714 16.0818
3343.160228 91.678 16.1804
3367.386145 91.642 16.2945
3391.787613 91.604 16.4204
3416.365904 91.564 16.5552
3441.122300 91.523 16.7009
3466.058091 91.479 16.8653
3491.174576 91.434 17.0564
3516.473066 91.390 17.2754
3541.954880 91.348 17.5164
3567.621345 91.308 17.7698
3593.473800 91.271 18.0254
3619.513592 91.237 18.2740
3645.742080 91.203 18.5097
3672.160630 91.168 18.7328
3698.770620 91.131 18.9512
3725.573436 91.093 19.1732
3752.570477 91.054 19.4021
3779.763150 91.014 19.6368
3807.152872 90.974 19.8754
3834.741071 90.931 20.1211
3862.529185 90.888 20.3821
3890.518664 90.843 20.6661
3918.710966 90.800 20.9743
3947.107561 90.760 21.3006
3975.709929 90.723 21.6347
4004.519563 90.690 21.9643
4033.537962 90.659 22.2787
4062.766641 90.630 22.5736
4092.207123 90.600 22.8529
4121.860942 90.569 23.1222
4151.729646 90.538 23.3836
4181.814790 90.505 23.6364
4212.117944 90.471 23.8826
4242.640687 90.434 24.1304
4273.384610 90.396 24.3914
4304.351317 90.357 24.6728
4335.542421 90.319 24.9740
4366.959549 90.283 25.2878
4398.604338 90.251 25.6023
4430.478438 90.222 25.9055
4462.583511 90.194 26.1921
4494.921231 90.166 26.4630
4527.493283 90.139 26.7199
4560.301365 90.111 26.9620
4593.347189 90.082 27.1888
4626.632476 90.050 27.4061
4660.158962 90.015 27.6253
4693.928395 89.979 27.8569
4727.942535 89.943 28.1056
4762.203156 89.907 28.3683
4796.712043 89.874 28.6354
4831.470996 89.843 28.8962
4866.481826 89.814 29.1454
4901.746360 89.785 29.3816
4937.266434 89.756 29.6029
4973.043902 89.727 29.8070
5009.080628 89.696 29.9956
5045.378492 89.662 30.1777
5081.939384 89.625 30.3653
5118.765212 89.586 30.5676
5155.857894 89.548 30.7873
5193.219366 89.510 31.0196
5230.851574 89.474 31.2568
5268.756481 89.440 31.4937
5306.936062 89.408 31.7269
5345.392309 89.377 31.9518
5384.127225 89.347 32.1647
5423.142830 89.316 32.3679
5462.441159 89.284 32.5699
5502.024259 89.251 32.7800
5541.894195 89.219 33.0033
5582.053045 89.190 33.2371
5622.502902 89.163 33.4734
5663.245876 89.140 33.7045
5704.284090 89.120 33.9234
5745.619684 89.102 34.1222
5787.254813 89.086 34.2959
5829.191647 89.069 34.4466
5871.432373 89.052 34.5835
5913.979192 89.033 34.7187
5956.834323 89.015 34.8603
6000.000000 88.997 35.0103
6043.478473 88.983 35.1663
6087.272010 88.972 35.3231
6131.382892 88.965 35.4722
6175.813420 88.963 35.6034
6220.565910 88.965 35.7101
6265.642695 88.969 35.7916
6311.046124 88.976 35.8512
6356.778566 88.986 35.8915
6402.842404 89.000 35.9112
6449.240040 89.017 35.9061
6495.973891 89.039 35.8693
6543.046396 89.065 35.7912
6590.460007 89.094 35.6628
6638.217197 89.125 35.4803
6686.320456 89.157 35.2462
6734.772290 89.188 34.9660
6783.575226 89.219 34.6449
6832.731809 89.250 34.2870
6882.244600 89.281 33.8944
6932.116181 89.313 33.4661
6982.349153 89.345 33.0002
7032.946133 89.379 32.4979
7083.909760 89.414 31.9642
7135.242690 89.451 31.4049
7186.947600 89.493 30.8219
7239.027185 89.543 30.2106
7291.484160 89.603 29.5565
7344.321260 89.676 28.8338
7397.541239 89.764 28.0096
7451.146872 89.866 27.0490
7505.140954 89.980 25.9181
7559.526299 90.105 24.5828
7614.305743 90.235 23.0109
7669.482141 90.365 21.1728
7725.058371 90.488 19.0427
7781.037328 90.594 16.6041
7837.421932 90.673 13.8580
7894.215122 90.713 10.8275
7951.419859 90.704 7.5560
8009.039125 90.637 4.1035
8067.075924 90.507 0.5416
8125.533282 90.310 -3.0552
8184.414245 90.047 -6.6128
8243.721885 89.716 -10.0579
8303.459292 89.321 -13.3178
8363.629581 88.866 -16.3239
8424.235888 88.358 -19.0136
8485.281374 87.806 -21.3359
8546.769221 87.218 -23.2556
8608.702634 86.606 -24.7523
8671.084842 85.979 -25.8143
8733.919097 85.347 -26.4333
8797.208675 84.719 -26.6018
8860.956876 84.107 -26.3152
8925.167022 83.523 -25.5819
8989.842461 82.981 -24.4346
9054.986566 82.497 -22.9364
9120.602731 82.085 -21.1822
9186.694378 81.754 -19.2962
9253.264952 81.510 -17.4240
9320.317925 81.350 -15.7202
9387.856790 81.265 -14.3295
9455.885071 81.235 -13.3615
9524.406312 81.237 -12.8710
9593.424086 81.249 -12.8519
9662.941992 81.248 -13.2449
9732.963653 81.220 -13.9588
9803.492719 81.155 -14.8926
9874.532869 81.051 -15.9492
9946.087805 80.906 -17.0428
10018.161257 80.725 -18.1006
10090.756983 80.512 -19.0629
10163.878768 80.275 -19.8884
10237.530423 80.022 -20.5565
10311.715789 79.762 -21.0654
10386.438732 79.499 -21.4233
10461.703149 79.239 -21.6399
10537.512962 78.985 -21.7241
10613.872125 78.740 -21.6886
10690.784618 78.508 -21.5523
10768.254450 78.291 -21.3373
10846.285661 78.089 -21.0608
10924.882318 77.903 -20.7326
11004.048518 77.734 -20.3602
11083.788390 77.581 -19.9544
11164.106090 77.446 -19.5292
11245.005805 77.328 -19.0955
11326.491752 77.227 -18.6586
11408.568180 77.141 -18.2211
11491.239368 77.072 -17.7879
11574.509626 77.020 -17.3666
11658.383294 76.984 -16.9626
11742.864745 76.965 -16.5769
11827.958384 76.962 -16.2091
11913.668646 76.978 -15.8632
12000.000000 77.012 -15.5474
12086.956947 77.064 -15.2689
12174.544019 77.135 -15.0304
12262.765784 77.226 -14.8329
12351.626840 77.339 -14.6817
12441.131819 77.474 -14.5856
12531.285389 77.632 -14.5526
12622.092249 77.816 -14.5884
12713.557132 78.027 -14.7006
12805.684808 78.267 -14.9023
12898.480079 78.540 -15.2087
12991.947783 78.847 -15.6353
13086.092792 79.192 -16.2001
13180.920015 79.579 -16.9285
13276.434395 80.011 -17.8532
13372.640911 80.494 -19.0119
13469.544580 81.030 -20.4482
13567.150452 81.623 -22.2175
13665.463617 82.274 -24.3894
13764.489200 82.983 -27.0433
13864.232362 83.745 -30.2650
13964.698305 84.549 -34.1457
14065.892266 85.381 -38.7790
14167.819519 86.218 -44.2506
14270.485380 87.032 -50.6261
14373.895200 87.790 -57.9410
14478.054370 88.456 -66.1881
14582.968320 88.993 -75.3028
14688.642520 89.367 -85.1490
14795.082478 89.551 -95.5183
14902.293745 89.529 -106.1458
15010.281908 89.299 -116.7410
15119.052599 88.871 -127.0292
15228.611486 88.270 -136.7896
15338.964283 87.526 -145.8737
15450.116741 86.673 -154.2044
15562.074656 85.746 -161.7642
15674.843864 84.778 -168.5816
15788.430244 83.796 -174.7181
15902.839718 82.824 179.7458
16018.078250 81.881 174.7214
16134.151848 80.979 170.1189
16251.066563 80.124 165.8535
16368.828491 79.320 161.8505
16487.443769 78.567 158.0466
16606.918584 77.861 154.3862
16727.259161 77.200 150.8209
16848.471777 76.578 147.3105
16970.562748 75.990 143.8208
17093.538442 75.432 140.3227
17217.405268 74.896 136.7957
17342.169684 74.378 133.2276
17467.838194 73.872 129.6133
17594.417350 73.371 125.9568
17721.913751 72.871 122.2699
17850.334044 72.369 118.5683
17979.684923 71.862 114.8693
18109.973131 71.349 111.1919
18241.205462 70.832 107.5539
18373.388756 70.311 103.9691
18506.529905 69.792 100.4435
18640.635849 69.278 96.9680
18775.713581 68.775 93.5124
18911.770141 68.291 90.0255
19048.812624 67.831 86.4357
19186.848172 67.401 82.6587
19325.883983 67.000 78.6180
19465.927305 66.628 74.2878
19606.985439 66.282 69.7688
19749.065738 65.971 65.3872
19892.175609 65.723 61.7567
20036.322514 65.582 59.6568
