* Measurement data measured by REW V5.30.3
* Source: EXCL: Microphone (Realtek(R) Audio), MICROPHONE (Master Volume), L, volume: 1.000
* Format: 256k Log Swept Sine, 1 sweep at -15.0 dBFS with no timing reference
* Dated: Jan 12, 2024 1:03:18 AM
* REW Settings:
*  C-weighting compensation: Off
*  Target level: 75.0 dB
* Note: TINHIFI T2 MKII MP L
* Measurement: L TinHifi T2 MK2 MP
* Smoothing: 1/12 octave
* Frequency Step: 96 ppo
* Start Frequency: 0.36621094 Hz
*
* Freq(Hz) SPL(dB) Phase(degrees)
0.366211 78.800 -9.3555
0.368865 78.803 -9.3507
0.371538 78.809 -9.3436
0.374230 78.816 -9.3349
0.376942 78.824 -9.3251
0.379673 78.833 -9.3146
0.382424 78.841 -9.3038
0.385196 78.850 -9.2928
0.387987 78.860 -9.2817
0.390798 78.869 -9.2705
0.393630 78.879 -9.2593
0.396483 78.888 -9.2480
0.399356 78.898 -9.2367
0.402250 78.907 -9.2254
0.405165 78.917 -9.2140
0.408101 78.927 -9.2026
0.411058 78.937 -9.1911
0.414037 78.947 -9.1796
0.417037 78.957 -9.1680
0.420059 78.967 -9.1563
0.423103 78.977 -9.1446
0.426169 78.987 -9.1327
0.429257 78.998 -9.1208
0.432367 79.008 -9.1087
0.435501 79.019 -9.0965
0.438656 79.029 -9.0841
0.441835 79.040 -9.0716
0.445037 79.050 -9.0590
0.448262 79.061 -9.0461
0.451510 79.072 -9.0331
0.454782 79.083 -9.0199
0.458077 79.094 -9.0065
0.461397 79.105 -8.9928
0.464740 79.116 -8.9789
0.468108 79.128 -8.9647
0.471500 79.139 -8.9503
0.474917 79.150 -8.9355
0.478358 79.162 -8.9205
0.481825 79.174 -8.9051
0.485316 79.185 -8.8894
0.488833 79.197 -8.8734
0.492375 79.209 -8.8569
0.495943 79.221 -8.8401
0.499537 79.233 -8.8228
0.503157 79.245 -8.8052
0.506803 79.257 -8.7870
0.510475 79.269 -8.7684
0.514174 79.282 -8.7493
0.517900 79.294 -8.7296
0.521653 79.307 -8.7094
0.525433 79.319 -8.6886
0.529241 79.332 -8.6673
0.533076 79.345 -8.6453
0.536939 79.358 -8.6227
0.540830 79.371 -8.5994
0.544749 79.384 -8.5754
0.548696 79.397 -8.5507
0.552673 79.411 -8.5252
0.556677 79.424 -8.4990
0.560711 79.437 -8.4720
0.564774 79.451 -8.4441
0.568867 79.465 -8.4153
0.572989 79.479 -8.3857
0.577141 79.492 -8.3551
0.581324 79.506 -8.3236
0.585536 79.521 -8.2910
0.589779 79.535 -8.2575
0.594053 79.549 -8.2229
0.598358 79.563 -8.1872
0.602694 79.578 -8.1504
0.607061 79.593 -8.1124
0.611460 79.607 -8.0732
0.615891 79.622 -8.0328
0.620354 79.637 -7.9912
0.624849 79.652 -7.9482
0.629377 79.667 -7.9039
0.633938 79.682 -7.8583
0.638532 79.698 -7.8112
0.643159 79.713 -7.7627
0.647819 79.729 -7.7128
0.652514 79.745 -7.6613
0.657242 79.760 -7.6083
0.662005 79.776 -7.5537
0.666802 79.792 -7.4975
0.671634 79.809 -7.4396
0.676501 79.825 -7.3800
0.681403 79.841 -7.3188
0.686341 79.858 -7.2557
0.691314 79.875 -7.1909
0.696324 79.892 -7.1243
0.701369 79.909 -7.0557
0.706452 79.926 -6.9853
0.711571 79.945 -6.9129
0.716727 79.964 -6.8384
0.721921 79.984 -6.7618
0.727153 80.007 -6.6828
0.732422 80.032 -6.6013
0.737729 80.061 -6.5172
0.743075 80.092 -6.4301
0.748460 80.125 -6.3400
0.753883 80.160 -6.2468
0.759346 80.197 -6.1505
0.764849 80.236 -6.0512
0.770391 80.275 -5.9488
0.775974 80.316 -5.8436
0.781597 80.358 -5.7356
0.787261 80.401 -5.6249
0.792965 80.444 -5.5117
0.798712 80.489 -5.3961
0.804499 80.535 -5.2782
0.810329 80.582 -5.1582
0.816201 80.630 -5.0363
0.822116 80.679 -4.9125
0.828073 80.728 -4.7870
0.834073 80.779 -4.6601
0.840118 80.831 -4.5318
0.846205 80.884 -4.4023
0.852337 80.938 -4.2719
0.858514 80.993 -4.1407
0.864735 81.049 -4.0089
0.871001 81.106 -3.8767
0.877313 81.164 -3.7442
0.883670 81.223 -3.6118
0.890074 81.283 -3.4795
0.896523 81.344 -3.3476
0.903020 81.406 -3.2163
0.909564 81.469 -3.0858
0.916155 81.533 -2.9564
0.922793 81.598 -2.8283
0.929480 81.664 -2.7016
0.936216 81.731 -2.5766
0.943000 81.798 -2.4536
0.949833 81.867 -2.3327
0.956716 81.937 -2.2143
0.963649 82.008 -2.0985
0.970632 82.079 -1.9856
0.977666 82.152 -1.8758
0.984750 82.225 -1.7693
0.991886 82.300 -1.6664
0.999074 82.375 -1.5673
1.006313 82.451 -1.4723
1.013605 82.528 -1.3816
1.020950 82.606 -1.2954
1.028349 82.684 -1.2140
1.035801 82.764 -1.1375
1.043306 82.844 -1.0662
1.050867 82.925 -1.0002
1.058482 83.006 -0.9396
1.066152 83.089 -0.8844
1.073878 83.172 -0.8346
1.081659 83.256 -0.7898
1.089498 83.341 -0.7493
1.097393 83.427 -0.7124
1.105345 83.514 -0.6779
1.113355 83.602 -0.6448
1.121422 83.692 -0.6121
1.129549 83.784 -0.5795
1.137734 83.877 -0.5465
1.145978 83.972 -0.5134
1.154283 84.068 -0.4803
1.162647 84.166 -0.4474
1.171072 84.266 -0.4151
1.179558 84.367 -0.3838
1.188106 84.470 -0.3538
1.196715 84.574 -0.3256
1.205387 84.680 -0.2996
1.214122 84.787 -0.2761
1.222920 84.896 -0.2555
1.231781 85.006 -0.2382
1.240708 85.117 -0.2246
1.249698 85.230 -0.2151
1.258754 85.344 -0.2100
1.267875 85.459 -0.2097
1.277063 85.575 -0.2146
1.286317 85.692 -0.2250
1.295638 85.810 -0.2413
1.305027 85.929 -0.2638
1.314484 86.048 -0.2929
1.324009 86.169 -0.3288
1.333603 86.290 -0.3720
1.343267 86.412 -0.4228
1.353001 86.534 -0.4815
1.362805 86.657 -0.5483
1.372681 86.780 -0.6237
1.382628 86.903 -0.7078
1.392647 87.026 -0.8011
1.402739 87.150 -0.9036
1.412904 87.273 -1.0156
1.423142 87.397 -1.1372
1.433455 87.520 -1.2682
1.443842 87.643 -1.4083
1.454305 87.766 -1.5567
1.464843 87.889 -1.7126
1.475458 88.012 -1.8747
1.486150 88.136 -2.0418
1.496919 88.260 -2.2129
1.507766 88.384 -2.3874
1.518692 88.509 -2.5649
1.529697 88.635 -2.7455
1.540782 88.761 -2.9291
1.551947 88.888 -3.1160
1.563193 89.015 -3.3062
1.574521 89.143 -3.5002
1.585931 89.271 -3.6982
1.597423 89.400 -3.9004
1.608998 89.529 -4.1072
1.620658 89.658 -4.3188
1.632402 89.788 -4.5355
1.644231 89.919 -4.7576
1.656146 90.049 -4.9854
1.668147 90.180 -5.2193
1.680235 90.311 -5.4594
1.692410 90.442 -5.7062
1.704674 90.573 -5.9598
1.717027 90.704 -6.2207
1.729469 90.835 -6.4891
1.742002 90.966 -6.7653
1.754625 91.097 -7.0496
1.767340 91.228 -7.3422
1.780147 91.358 -7.6433
1.793046 91.489 -7.9530
1.806040 91.619 -8.2713
1.819127 91.748 -8.5980
1.832309 91.878 -8.9326
1.845587 92.007 -9.2744
1.858961 92.136 -9.6228
1.872431 92.264 -9.9772
1.886000 92.392 -10.3370
1.899666 92.520 -10.7018
1.913432 92.648 -11.0713
1.927298 92.776 -11.4451
1.941264 92.903 -11.8233
1.955331 93.030 -12.2055
1.969500 93.157 -12.5917
1.983772 93.283 -12.9817
1.998147 93.409 -13.3756
2.012626 93.535 -13.7733
2.027211 93.660 -14.1748
2.041901 93.786 -14.5801
2.056697 93.911 -14.9893
2.071601 94.035 -15.4024
2.086613 94.160 -15.8194
2.101733 94.284 -16.2406
2.116963 94.407 -16.6661
2.132303 94.530 -17.0960
2.147755 94.653 -17.5306
2.163318 94.776 -17.9701
2.178995 94.898 -18.4148
2.194785 95.020 -18.8648
2.210689 95.141 -19.3205
2.226709 95.261 -19.7819
2.242844 95.381 -20.2489
2.259097 95.500 -20.7212
2.275467 95.619 -21.1985
2.291956 95.737 -21.6804
2.308565 95.854 -22.1665
2.325294 95.970 -22.6563
2.342144 96.086 -23.1495
2.359116 96.201 -23.6455
2.376211 96.316 -24.1441
2.393430 96.430 -24.6449
2.410774 96.543 -25.1476
2.428243 96.656 -25.6519
2.445839 96.768 -26.1575
2.463562 96.880 -26.6645
2.481415 96.991 -27.1725
2.499396 97.102 -27.6817
2.517508 97.212 -28.1923
2.535750 97.321 -28.7045
2.554126 97.430 -29.2190
2.572634 97.538 -29.7363
2.591276 97.646 -30.2572
2.610054 97.752 -30.7820
2.628967 97.858 -31.3109
2.648018 97.963 -31.8437
2.667206 98.067 -32.3801
2.686534 98.170 -32.9196
2.706002 98.272 -33.4615
2.725610 98.374 -34.0052
2.745361 98.474 -34.5501
2.765255 98.574 -35.0956
2.785294 98.673 -35.6411
2.805477 98.772 -36.1860
2.825807 98.869 -36.7298
2.846284 98.967 -37.2723
2.866909 99.063 -37.8131
2.887684 99.159 -38.3523
2.908609 99.255 -38.8903
2.929686 99.349 -39.4276
2.950916 99.443 -39.9650
2.972299 99.536 -40.5033
2.993838 99.628 -41.0431
3.015532 99.720 -41.5843
3.037384 99.810 -42.1269
3.059394 99.899 -42.6705
3.081564 99.988 -43.2146
3.103894 100.076 -43.7585
3.126386 100.163 -44.3016
3.149041 100.249 -44.8433
3.171861 100.335 -45.3828
3.194845 100.420 -45.9197
3.217996 100.505 -46.4534
3.241315 100.589 -46.9837
3.264803 100.672 -47.5106
3.288461 100.755 -48.0343
3.312291 100.838 -48.5554
3.336293 100.920 -49.0745
3.360469 101.001 -49.5920
3.384820 101.081 -50.1084
3.409348 101.161 -50.6237
3.434054 101.240 -51.1376
3.458938 101.318 -51.6500
3.484003 101.396 -52.1605
3.509250 101.473 -52.6685
3.534679 101.550 -53.1738
3.560293 101.627 -53.6757
3.586092 101.703 -54.1740
3.612079 101.779 -54.6684
3.638253 101.855 -55.1588
3.664618 101.930 -55.6452
3.691173 102.005 -56.1281
3.717921 102.080 -56.6077
3.744862 102.155 -57.0843
3.771999 102.229 -57.5583
3.799332 102.303 -58.0296
3.826864 102.376 -58.4984
3.854595 102.449 -58.9648
3.882527 102.522 -59.4286
3.910661 102.595 -59.8898
3.938999 102.668 -60.3483
3.967543 102.741 -60.8041
3.996294 102.814 -61.2570
4.025252 102.887 -61.7071
4.054421 102.960 -62.1544
4.083801 103.033 -62.5989
4.113394 103.106 -63.0409
4.143201 103.179 -63.4805
4.173225 103.252 -63.9180
4.203466 103.325 -64.3537
4.233926 103.397 -64.7878
4.264606 103.470 -65.2207
4.295509 103.543 -65.6525
4.326636 103.616 -66.0835
4.357989 103.690 -66.5137
4.389569 103.763 -66.9433
4.421378 103.836 -67.3722
4.453417 103.910 -67.8004
4.485688 103.984 -68.2279
4.518193 104.057 -68.6550
4.550934 104.131 -69.0817
4.583912 104.205 -69.5082
4.617129 104.279 -69.9350
4.650587 104.352 -70.3621
4.684287 104.426 -70.7898
4.718231 104.500 -71.2184
4.752421 104.574 -71.6480
4.786859 104.647 -72.0787
4.821547 104.721 -72.5105
4.856485 104.794 -72.9433
4.891677 104.868 -73.3772
4.927125 104.941 -73.8121
4.962829 105.014 -74.2480
4.998791 105.087 -74.6849
5.035015 105.159 -75.1227
5.071500 105.232 -75.5616
5.108251 105.304 -76.0017
5.145267 105.375 -76.4431
5.182552 105.447 -76.8859
5.220107 105.518 -77.3300
5.257934 105.588 -77.7754
5.296035 105.659 -78.2218
5.334412 105.728 -78.6689
5.373067 105.798 -79.1165
5.412003 105.867 -79.5643
5.451221 105.935 -80.0123
5.490722 106.003 -80.4605
5.530510 106.071 -80.9088
5.570587 106.138 -81.3574
5.610953 106.204 -81.8062
5.651613 106.270 -82.2551
5.692567 106.335 -82.7037
5.733818 106.400 -83.1517
5.775367 106.465 -83.5988
5.817218 106.529 -84.0449
5.859372 106.592 -84.4897
5.901831 106.655 -84.9333
5.944598 106.718 -85.3759
5.987675 106.780 -85.8173
6.031065 106.842 -86.2576
6.074768 106.903 -86.6965
6.118788 106.964 -87.1340
6.163127 107.025 -87.5698
6.207788 107.085 -88.0040
6.252772 107.145 -88.4363
6.298082 107.205 -88.8671
6.343721 107.264 -89.2962
6.389690 107.323 -89.7239
6.435992 107.382 -90.1501
6.482630 107.441 -90.5751
6.529606 107.499 -90.9988
6.576922 107.558 -91.4213
6.624581 107.616 -91.8426
6.672585 107.674 -92.2629
6.720938 107.732 -92.6823
6.769640 107.789 -93.1010
6.818696 107.847 -93.5191
6.868107 107.904 -93.9368
6.917876 107.962 -94.3544
6.968006 108.019 -94.7718
7.018499 108.076 -95.1893
7.069358 108.133 -95.6070
7.120586 108.189 -96.0248
7.172184 108.246 -96.4430
7.224157 108.302 -96.8617
7.276506 108.358 -97.2809
7.329235 108.414 -97.7008
7.382345 108.469 -98.1215
7.435841 108.525 -98.5429
7.489724 108.579 -98.9651
7.543997 108.634 -99.3880
7.598664 108.688 -99.8115
7.653728 108.742 -100.2357
7.709189 108.795 -100.6606
7.765053 108.848 -101.0860
7.821322 108.900 -101.5119
7.877998 108.952 -101.9383
7.935086 109.004 -102.3650
7.992587 109.055 -102.7917
8.050504 109.106 -103.2185
8.108841 109.156 -103.6451
8.167601 109.205 -104.0716
8.226787 109.254 -104.4978
8.286402 109.303 -104.9237
8.346449 109.351 -105.3489
8.406931 109.399 -105.7736
8.467851 109.446 -106.1974
8.529212 109.493 -106.6205
8.591018 109.539 -107.0428
8.653272 109.585 -107.4642
8.715977 109.631 -107.8847
8.779137 109.676 -108.3043
8.842754 109.721 -108.7230
8.906833 109.766 -109.1408
8.971375 109.810 -109.5577
9.036386 109.854 -109.9739
9.101867 109.898 -110.3894
9.167823 109.941 -110.8042
9.234257 109.984 -111.2185
9.301172 110.027 -111.6323
9.368572 110.070 -112.0457
9.436460 110.112 -112.4588
9.504841 110.155 -112.8718
9.573717 110.196 -113.2846
9.643092 110.238 -113.6975
9.712970 110.279 -114.1103
9.783354 110.320 -114.5234
9.854248 110.361 -114.9366
9.925656 110.402 -115.3500
9.997581 110.442 -115.7637
10.070028 110.482 -116.1778
10.143000 110.521 -116.5921
10.216500 110.561 -117.0068
10.290533 110.600 -117.4217
10.365103 110.638 -117.8370
10.440212 110.676 -118.2524
10.515866 110.714 -118.6681
10.592069 110.752 -119.0839
10.668823 110.789 -119.4998
10.746134 110.825 -119.9156
10.824005 110.862 -120.3315
10.902440 110.897 -120.7471
10.981443 110.933 -121.1625
11.061020 110.968 -121.5776
11.141172 111.003 -121.9923
11.221906 111.037 -122.4065
11.303225 111.071 -122.8203
11.385133 111.105 -123.2333
11.467634 111.138 -123.6458
11.550734 111.171 -124.0575
11.634435 111.204 -124.4686
11.718742 111.237 -124.8789
11.803661 111.269 -125.2885
11.889195 111.301 -125.6975
11.975349 111.332 -126.1059
12.062128 111.364 -126.5137
12.149535 111.395 -126.9211
12.237576 111.426 -127.3282
12.326254 111.457 -127.7350
12.415575 111.488 -128.1417
12.505544 111.518 -128.5485
12.596164 111.549 -128.9554
12.687441 111.579 -129.3625
12.779379 111.608 -129.7699
12.871984 111.638 -130.1778
12.965260 111.667 -130.5860
13.059211 111.696 -130.9947
13.153843 111.724 -131.4037
13.249161 111.752 -131.8129
13.345170 111.780 -132.2223
13.441875 111.807 -132.6316
13.539280 111.834 -133.0407
13.637391 111.860 -133.4493
13.736214 111.886 -133.8571
13.835752 111.911 -134.2639
13.936011 111.936 -134.6695
14.036998 111.960 -135.0734
14.138716 111.984 -135.4755
14.241171 112.007 -135.8755
14.344368 112.030 -136.2732
14.448313 112.052 -136.6685
14.553011 112.075 -137.0614
14.658468 112.097 -137.4516
14.764689 112.118 -137.8393
14.871680 112.140 -138.2244
14.979446 112.161 -138.6072
15.087994 112.182 -138.9876
15.197328 112.204 -139.3660
15.307454 112.225 -139.7425
15.418378 112.246 -140.1172
15.530106 112.267 -140.4907
15.642643 112.288 -140.8629
15.755996 112.309 -141.2344
15.870171 112.331 -141.6054
15.985172 112.352 -141.9762
16.101007 112.373 -142.3471
16.217682 112.394 -142.7185
16.335201 112.415 -143.0907
16.453573 112.436 -143.4641
16.572803 112.457 -143.8389
16.692898 112.478 -144.2155
16.813862 112.498 -144.5940
16.935701 112.518 -144.9747
17.058424 112.538 -145.3575
17.182035 112.557 -145.7424
17.306543 112.576 -146.1294
17.431953 112.594 -146.5180
17.558273 112.611 -146.9079
17.685509 112.627 -147.2986
17.813665 112.643 -147.6895
17.942751 112.657 -148.0799
18.072771 112.671 -148.4690
18.203733 112.684 -148.8561
18.335646 112.696 -149.2405
18.468513 112.707 -149.6216
18.602345 112.717 -149.9990
18.737144 112.727 -150.3723
18.872921 112.737 -150.7413
19.009682 112.746 -151.1061
19.147434 112.756 -151.4669
19.286184 112.765 -151.8241
19.425940 112.774 -152.1782
19.566708 112.783 -152.5298
19.708496 112.793 -152.8796
19.851313 112.803 -153.2284
19.995163 112.812 -153.5769
20.140057 112.822 -153.9256
20.285999 112.833 -154.2752
20.433001 112.843 -154.6261
20.581066 112.853 -154.9786
20.730206 112.863 -155.3328
20.880424 112.872 -155.6888
21.031733 112.882 -156.0463
21.184137 112.891 -156.4052
21.337646 112.899 -156.7651
21.492268 112.907 -157.1254
21.648010 112.914 -157.4857
21.804880 112.921 -157.8455
21.962887 112.928 -158.2041
22.122040 112.934 -158.5612
22.282345 112.939 -158.9162
22.443811 112.945 -159.2690
22.606449 112.949 -159.6192
22.770266 112.954 -159.9668
22.935268 112.959 -160.3119
23.101467 112.964 -160.6547
23.268869 112.968 -160.9956
23.437485 112.973 -161.3350
23.607323 112.978 -161.6735
23.778391 112.983 -162.0117
23.950699 112.988 -162.3502
24.124256 112.994 -162.6897
24.299070 112.999 -163.0306
24.475151 113.004 -163.3734
24.652508 113.008 -163.7183
24.831150 113.013 -164.0653
25.011087 113.016 -164.4141
25.192327 113.019 -164.7641
25.374882 113.021 -165.1145
25.558758 113.022 -165.4639
25.743967 113.022 -165.8113
25.930519 113.021 -166.1552
26.118422 113.020 -166.4946
26.307686 113.017 -166.8286
26.498322 113.015 -167.1571
26.690340 113.012 -167.4801
26.883749 113.009 -167.7988
27.078560 113.007 -168.1144
27.274782 113.005 -168.4288
27.472427 113.003 -168.7435
27.671503 113.001 -169.0602
27.872023 112.999 -169.3796
28.073996 112.996 -169.7021
28.277431 112.993 -170.0269
28.482342 112.989 -170.3527
28.688736 112.984 -170.6776
28.896626 112.978 -170.9998
29.106022 112.971 -171.3173
29.316936 112.964 -171.6292
29.529379 112.956 -171.9351
29.743361 112.949 -172.2359
29.958893 112.942 -172.5331
30.175987 112.936 -172.8288
30.394655 112.931 -173.1255
30.614908 112.927 -173.4254
30.836756 112.923 -173.7301
31.060211 112.919 -174.0406
31.285286 112.915 -174.3569
31.511992 112.910 -174.6778
31.740341 112.904 -175.0020
31.970345 112.897 -175.3271
32.202015 112.889 -175.6512
32.435364 112.881 -175.9721
32.670403 112.872 -176.2884
32.907146 112.862 -176.5993
33.145607 112.853 -176.9049
33.385796 112.844 -177.2065
33.627724 112.836 -177.5057
33.871403 112.828 -177.8051
34.116848 112.821 -178.1071
34.364071 112.814 -178.4135
34.613087 112.807 -178.7255
34.863907 112.799 -179.0429
35.116547 112.790 -179.3644
35.371017 112.780 -179.6878
35.627331 112.769 179.9895
35.885502 112.756 179.6700
36.145542 112.742 179.3555
36.407467 112.727 179.0471
36.671291 112.712 178.7451
36.937027 112.696 178.4492
37.204689 112.680 178.1590
37.474289 112.665 177.8735
37.745842 112.649 177.5916
38.019363 112.634 177.3118
38.294868 112.620 177.0323
38.572369 112.606 176.7513
38.851879 112.592 176.4678
39.133415 112.578 176.1816
39.416992 112.564 175.8946
39.702625 112.548 175.6094
39.990326 112.533 175.3286
40.280113 112.518 175.0534
40.571999 112.503 174.7827
40.866001 112.490 174.5130
41.162132 112.477 174.2401
41.460411 112.465 173.9609
41.760849 112.451 173.6758
42.063465 112.436 173.3895
42.368275 112.419 173.1094
42.675293 112.401 172.8427
42.984535 112.381 172.5935
43.296021 112.363 172.3605
43.609760 112.346 172.1373
43.925774 112.330 171.9153
44.244080 112.316 171.6877
44.564690 112.300 171.4529
44.887623 112.283 171.2146
45.212898 112.264 170.9793
45.540531 112.243 170.7523
45.870537 112.222 170.5340
46.202934 112.202 170.3188
46.537739 112.183 170.0983
46.874969 112.164 169.8647
47.214645 112.144 169.6157
47.556782 112.122 169.3541
47.901398 112.098 169.0861
48.248512 112.073 168.8154
48.598141 112.047 168.5405
48.950302 112.022 168.2546
49.305016 111.996 167.9510
49.662300 111.968 167.6290
50.022175 111.935 167.2982
50.384655 111.898 166.9776
50.749763 111.856 166.6882
51.117516 111.814 166.4445
51.487934 111.775 166.2476
51.861038 111.743 166.0845
52.236843 111.718 165.9345
52.615372 111.701 165.7778
52.996643 111.688 165.6034
53.380680 111.677 165.4095
53.767498 111.667 165.2011
54.157120 111.657 164.9837
54.549564 111.646 164.7608
54.944855 111.635 164.5340
55.343006 111.621 164.3052
55.744045 111.606 164.0784
56.147991 111.589 163.8577
56.554863 111.570 163.6453
56.964684 111.550 163.4386
57.377472 111.530 163.2321
57.793251 111.509 163.0208
58.212044 111.486 162.8031
58.633873 111.460 162.5810
59.058758 111.433 162.3577
59.486721 111.403 162.1356
59.917786 111.372 161.9171
60.351974 111.339 161.7061
60.789310 111.305 161.5067
61.229816 111.273 161.3196
61.673512 111.242 161.1375
62.120422 111.214 160.9474
62.570572 111.186 160.7393
63.023983 111.157 160.5148
63.480682 111.125 160.2868
63.940689 111.091 160.0706
64.404030 111.056 159.8730
64.870728 111.022 159.6880
65.340805 110.991 159.5030
65.814293 110.962 159.3060
66.291214 110.933 159.0905
66.771591 110.904 158.8530
67.255447 110.874 158.5927
67.742805 110.840 158.3137
68.233696 110.802 158.0288
68.728142 110.758 157.7594
69.226173 110.712 157.5266
69.727814 110.666 157.3400
70.233093 110.625 157.1910
70.742035 110.589 157.0586
71.254662 110.558 156.9227
71.771004 110.529 156.7762
72.291084 110.499 156.6245
72.814934 110.468 156.4763
73.342583 110.436 156.3354
73.874054 110.404 156.1990
74.409378 110.370 156.0621
74.948578 110.336 155.9206
75.491684 110.300 155.7723
76.038727 110.262 155.6172
76.589737 110.222 155.4576
77.144737 110.182 155.2973
77.703758 110.141 155.1399
78.266830 110.101 154.9872
78.833984 110.062 154.8394
79.405251 110.025 154.6961
79.980652 109.989 154.5567
80.560226 109.954 154.4202
81.143997 109.917 154.2893
81.732002 109.876 154.1743
82.324265 109.828 154.0923
82.920822 109.775 154.0620
83.521698 109.715 154.1007
84.126930 109.651 154.2254
84.736549 109.586 154.4516
85.350586 109.526 154.7861
85.969070 109.477 155.2175
86.592041 109.446 155.7030
87.219521 109.436 156.1655
87.851547 109.442 156.5215
88.488159 109.452 156.7382
89.129379 109.455 156.8581
89.775246 109.451 156.9483
90.425797 109.448 157.0279
91.081062 109.449 157.0593
91.741074 109.452 157.0021
92.405869 109.453 156.8508
93.075478 109.449 156.6265
93.749939 109.441 156.3564
94.429291 109.430 156.0614
95.113564 109.419 155.7479
95.802795 109.409 155.4108
96.497025 109.395 155.0523
97.196281 109.374 154.6981
97.900604 109.344 154.3919
98.610031 109.307 154.1678
99.324600 109.267 154.0244
100.044350 109.229 153.9276
100.769310 109.192 153.8301
101.499527 109.158 153.6781
102.235031 109.123 153.4230
102.975868 109.079 153.0610
103.722076 109.024 152.6561
104.473686 108.962 152.3069
105.230743 108.906 152.0864
105.993286 108.871 151.9991
106.761360 108.863 151.9807
107.534996 108.876 151.9506
108.314240 108.896 151.8678
109.099129 108.909 151.7299
109.889709 108.905 151.5430
110.686012 108.882 151.3100
111.488091 108.841 151.0337
112.295982 108.791 150.7132
113.109726 108.741 150.3462
113.929367 108.706 149.9404
114.754944 108.697 149.5202
115.586502 108.722 149.1160
116.424088 108.784 148.7434
117.267746 108.875 148.3895
118.117516 108.975 148.0156
118.973442 109.052 147.5903
119.835571 109.073 147.1637
120.703949 109.019 146.8879
121.578621 108.900 146.8995
122.459633 108.742 147.1931
123.347023 108.573 147.6487
124.240845 108.412 148.1328
125.141144 108.273 148.5488
126.047966 108.165 148.8473
126.961365 108.090 149.0189
127.881378 108.047 149.0719
128.808060 108.026 149.0194
129.741455 108.013 148.8848
130.681610 107.992 148.7094
131.628586 107.954 148.5515
132.582428 107.894 148.4666
133.543182 107.821 148.4648
134.510895 107.742 148.4952
135.485611 107.662 148.4872
136.467392 107.584 148.4041
137.456284 107.509 148.2505
138.452347 107.441 148.0488
139.455627 107.387 147.8272
140.466187 107.349 147.6241
141.484070 107.330 147.4818
142.509323 107.328 147.4212
143.542007 107.337 147.4277
144.582169 107.343 147.4836
145.629868 107.334 147.5969
146.685165 107.304 147.7751
147.748108 107.255 147.9976
148.818756 107.191 148.2165
149.897156 107.122 148.3820
150.983368 107.052 148.4780
152.077454 106.987 148.5368
153.179474 106.933 148.6049
154.289474 106.897 148.6941
155.407516 106.881 148.7663
156.533661 106.887 148.7665
157.667969 106.917 148.6728
158.810501 106.979 148.5131
159.961304 107.083 148.3420
161.120453 107.235 148.1995
162.287994 107.423 148.0869
163.464005 107.613 147.9670
164.648529 107.759 147.7737
165.841644 107.810 147.4790
167.043396 107.734 147.1923
168.253860 107.539 147.0776
169.473099 107.272 147.1655
170.701172 106.989 147.3612
171.938141 106.734 147.5644
173.184082 106.533 147.7425
174.439041 106.389 147.9218
175.703094 106.294 148.1354
176.976318 106.232 148.3788
178.258759 106.186 148.6115
179.550491 106.150 148.7899
180.851593 106.118 148.8929
182.162125 106.093 148.9254
183.482147 106.072 148.9122
184.811737 106.055 148.8838
186.150955 106.036 148.8609
187.499878 106.014 148.8483
188.858582 105.990 148.8403
190.227127 105.963 148.8301
191.605591 105.936 148.8157
192.994049 105.907 148.7991
194.392563 105.875 148.7834
195.801208 105.836 148.7721
197.220062 105.790 148.7695
198.649200 105.740 148.7780
200.088699 105.689 148.7978
201.538620 105.639 148.8295
202.999054 105.593 148.8727
204.470062 105.549 148.9224
205.951736 105.506 148.9684
207.444153 105.464 148.9994
208.947372 105.421 149.0104
210.461487 105.377 149.0074
211.986572 105.334 149.0068
213.522720 105.292 149.0282
215.069992 105.253 149.0841
216.628479 105.216 149.1729
218.198257 105.180 149.2841
219.779419 105.146 149.4059
221.372025 105.112 149.5281
222.976181 105.078 149.6432
224.591965 105.044 149.7478
226.219452 105.011 149.8423
227.858734 104.977 149.9293
229.509888 104.944 150.0118
231.173004 104.911 150.0927
232.848175 104.878 150.1737
234.535492 104.847 150.2546
236.235031 104.815 150.3340
237.946884 104.783 150.4107
239.671143 104.751 150.4840
241.407898 104.717 150.5547
243.157242 104.682 150.6257
244.919266 104.646 150.7011
246.694046 104.608 150.7850
248.481689 104.571 150.8807
250.282288 104.533 150.9904
252.095932 104.496 151.1151
253.922729 104.460 151.2537
255.762756 104.428 151.4012
257.616119 104.398 151.5490
259.482910 104.371 151.6867
261.363220 104.345 151.8070
263.257172 104.318 151.9094
265.164856 104.290 151.9993
267.086365 104.260 152.0851
269.021790 104.228 152.1741
270.971222 104.196 152.2708
272.934784 104.165 152.3767
274.912567 104.134 152.4921
276.904694 104.106 152.6166
278.911255 104.078 152.7501
280.932373 104.052 152.8912
282.968140 104.028 153.0358
285.018646 104.006 153.1760
287.084015 103.985 153.3012
289.164337 103.964 153.4031
291.259735 103.943 153.4801
293.370331 103.920 153.5383
295.496216 103.894 153.5890
297.637512 103.866 153.6426
299.794312 103.835 153.7054
301.966736 103.804 153.7795
304.154907 103.772 153.8643
306.358948 103.740 153.9578
308.578949 103.708 154.0566
310.815033 103.676 154.1573
313.067322 103.645 154.2582
315.335938 103.614 154.3604
317.621002 103.582 154.4672
319.922607 103.550 154.5825
322.240906 103.518 154.7088
324.575989 103.486 154.8458
326.928009 103.455 154.9902
329.297058 103.425 155.1372
331.683289 103.397 155.2821
334.086792 103.370 155.4211
336.507721 103.343 155.5526
338.946198 103.317 155.6773
341.402344 103.290 155.7986
343.876282 103.263 155.9208
346.368164 103.235 156.0471
348.878082 103.206 156.1790
351.406189 103.178 156.3167
353.952637 103.150 156.4600
356.517517 103.123 156.6077
359.100983 103.096 156.7581
361.703186 103.069 156.9091
364.324249 103.043 157.0592
366.964294 103.016 157.2084
369.623474 102.990 157.3578
372.301910 102.963 157.5089
374.999756 102.937 157.6627
377.717163 102.910 157.8199
380.454254 102.884 157.9802
383.211182 102.859 158.1423
385.988098 102.833 158.3052
388.785126 102.809 158.4683
391.602417 102.784 158.6316
394.440125 102.760 158.7953
397.298401 102.736 158.9592
400.177399 102.712 159.1222
403.077240 102.689 159.2834
405.998108 102.666 159.4423
408.940125 102.642 159.5996
411.903473 102.619 159.7571
414.888306 102.595 159.9179
417.894745 102.570 160.0852
420.922974 102.545 160.2621
423.973145 102.522 160.4497
427.045441 102.499 160.6462
430.139984 102.478 160.8470
433.256958 102.459 161.0461
436.396515 102.441 161.2398
439.558838 102.424 161.4273
442.744049 102.408 161.6095
445.952362 102.393 161.7858
449.183929 102.380 161.9520
452.438904 102.366 162.1021
455.717468 102.351 162.2325
459.019775 102.334 162.3463
462.346008 102.314 162.4543
465.696350 102.291 162.5677
469.070984 102.266 162.6940
472.470062 102.241 162.8347
475.893768 102.215 162.9869
479.342285 102.191 163.1458
482.815796 102.166 163.3061
486.314484 102.142 163.4658
489.838531 102.117 163.6287
493.388092 102.091 163.8019
496.963379 102.065 163.9901
500.564575 102.040 164.1915
504.191864 102.018 164.3990
507.845459 101.996 164.6053
511.525513 101.975 164.8061
515.232239 101.954 165.0012
518.965820 101.932 165.1931
522.726440 101.909 165.3871
526.514343 101.886 165.5889
530.329712 101.863 165.8016
534.172729 101.841 166.0236
538.043579 101.821 166.2499
541.942444 101.800 166.4773
545.869568 101.781 166.7063
549.825134 101.762 166.9371
553.809387 101.744 167.1676
557.822510 101.726 167.3939
561.864746 101.709 167.6141
565.936279 101.692 167.8295
570.037292 101.674 168.0439
574.168030 101.656 168.2611
578.328674 101.638 168.4829
582.519470 101.619 168.7089
586.740662 101.601 168.9394
590.992432 101.582 169.1773
595.275024 101.563 169.4252
599.588623 101.545 169.6810
603.933472 101.528 169.9396
608.309814 101.511 170.1970
612.717896 101.495 170.4525
617.157898 101.478 170.7094
621.630066 101.461 170.9738
626.134644 101.443 171.2517
630.671875 101.427 171.5453
635.242004 101.413 171.8506
639.845215 101.401 172.1623
644.481812 101.390 172.4778
649.151978 101.381 172.7966
653.856018 101.374 173.1164
658.594116 101.371 173.4301
663.366577 101.370 173.7269
668.173584 101.370 173.9984
673.015442 101.369 174.2448
677.892395 101.367 174.4743
682.804688 101.363 174.6973
687.752563 101.357 174.9221
692.736328 101.349 175.1551
697.756165 101.340 175.4011
702.812378 101.331 175.6619
707.905273 101.322 175.9354
713.035034 101.314 176.2170
718.201965 101.307 176.5026
723.406372 101.300 176.7905
728.648499 101.294 177.0804
733.928589 101.289 177.3726
739.246948 101.284 177.6679
744.603821 101.280 177.9669
749.999512 101.276 178.2699
755.434326 101.272 178.5771
760.908508 101.270 178.8890
766.422363 101.268 179.2061
771.976196 101.268 179.5285
777.570251 101.269 179.8554
783.204834 101.270 -179.8142
788.880249 101.273 -179.4803
794.596802 101.277 -179.1404
800.354797 101.283 -178.7926
806.154480 101.292 -178.4379
811.996216 101.304 -178.0820
817.880249 101.320 -177.7337
823.806946 101.339 -177.4027
829.776611 101.361 -177.0971
835.789490 101.382 -176.8190
841.845947 101.401 -176.5622
847.946289 101.419 -176.3161
854.090881 101.435 -176.0720
860.279968 101.450 -175.8257
866.513916 101.464 -175.5752
872.793030 101.478 -175.3190
879.117676 101.492 -175.0584
885.488098 101.508 -174.7975
891.904724 101.525 -174.5392
898.367859 101.542 -174.2838
904.877808 101.560 -174.0293
911.434937 101.579 -173.7757
918.039551 101.599 -173.5258
924.692017 101.619 -173.2831
931.392700 101.640 -173.0511
938.141968 101.661 -172.8322
944.940125 101.680 -172.6265
951.787537 101.698 -172.4295
958.684570 101.713 -172.2343
965.631592 101.725 -172.0334
972.628967 101.736 -171.8193
979.677063 101.746 -171.5880
986.776184 101.757 -171.3386
993.926758 101.768 -171.0713
1001.129150 101.781 -170.7849
1008.383728 101.796 -170.4803
1015.690918 101.816 -170.1632
1023.051025 101.841 -169.8424
1030.464478 101.872 -169.5289
1037.931641 101.908 -169.2367
1045.452881 101.948 -168.9805
1053.028687 101.989 -168.7666
1060.659424 102.029 -168.5911
1068.345459 102.067 -168.4441
1076.087158 102.102 -168.3153
1083.884888 102.134 -168.1976
1091.739136 102.164 -168.0883
1099.650269 102.193 -167.9872
1107.618774 102.219 -167.8941
1115.645020 102.243 -167.8075
1123.729492 102.265 -167.7256
1131.872559 102.285 -167.6460
1140.074585 102.302 -167.5667
1148.336060 102.317 -167.4860
1156.657349 102.329 -167.4017
1165.038940 102.339 -167.3107
1173.481323 102.347 -167.2089
1181.984863 102.353 -167.0938
1190.550049 102.360 -166.9675
1199.177246 102.366 -166.8367
1207.866943 102.372 -166.7087
1216.619629 102.375 -166.5851
1225.435791 102.376 -166.4586
1234.315796 102.372 -166.3178
1243.260132 102.365 -166.1517
1252.269287 102.355 -165.9520
1261.343750 102.344 -165.7154
1270.484009 102.333 -165.4429
1279.690430 102.323 -165.1360
1288.963623 102.315 -164.7962
1298.303955 102.311 -164.4264
1307.712036 102.312 -164.0323
1317.188232 102.318 -163.6213
1326.733154 102.327 -163.2006
1336.347168 102.341 -162.7751
1346.030884 102.358 -162.3472
1355.784790 102.378 -161.9165
1365.609375 102.401 -161.4823
1375.505127 102.426 -161.0423
1385.472656 102.455 -160.5932
1395.512329 102.487 -160.1350
1405.624756 102.525 -159.6737
1415.810547 102.569 -159.2213
1426.070068 102.618 -158.7923
1436.403931 102.670 -158.3950
1446.812744 102.724 -158.0290
1457.296997 102.778 -157.6876
1467.857178 102.831 -157.3637
1478.493896 102.883 -157.0514
1489.207642 102.935 -156.7462
1499.999023 102.986 -156.4438
1510.868652 103.036 -156.1402
1521.817017 103.087 -155.8323
1532.844727 103.138 -155.5172
1543.952393 103.191 -155.1923
1555.140503 103.246 -154.8563
1566.409668 103.305 -154.5127
1577.760498 103.369 -154.1725
1589.193604 103.436 -153.8504
1600.709595 103.507 -153.5565
1612.308960 103.578 -153.2914
1623.992432 103.648 -153.0496
1635.760498 103.718 -152.8230
1647.613892 103.787 -152.6051
1659.553223 103.855 -152.3911
1671.578979 103.923 -152.1779
1683.691895 103.991 -151.9652
1695.892578 104.060 -151.7550
1708.181763 104.130 -151.5489
1720.559937 104.200 -151.3462
1733.027832 104.270 -151.1432
1745.586060 104.340 -150.9340
1758.235352 104.410 -150.7120
1770.976196 104.483 -150.4727
1783.809448 104.559 -150.2182
1796.735718 104.640 -149.9592
1809.755615 104.727 -149.7112
1822.869873 104.817 -149.4855
1836.079102 104.911 -149.2859
1849.384033 105.007 -149.1098
1862.785400 105.103 -148.9531
1876.283936 105.201 -148.8104
1889.880249 105.299 -148.6763
1903.575073 105.399 -148.5457
1917.369141 105.501 -148.4145
1931.263184 105.607 -148.2812
1945.257935 105.718 -148.1500
1959.354126 105.836 -148.0326
1973.552368 105.960 -147.9457
1987.853516 106.089 -147.9026
2002.258301 106.221 -147.9087
2016.767456 106.356 -147.9630
2031.381836 106.492 -148.0627
2046.102051 106.629 -148.2055
2060.928955 106.767 -148.3914
2075.863281 106.905 -148.6239
2090.905762 107.044 -148.9072
2106.057373 107.182 -149.2429
2121.318848 107.317 -149.6282
2136.690918 107.450 -150.0566
2152.174316 107.581 -150.5214
2167.769775 107.711 -151.0218
2183.478271 107.841 -151.5656
2199.300537 107.970 -152.1649
2215.237549 108.096 -152.8288
2231.290039 108.218 -153.5598
2247.458984 108.333 -154.3555
2263.745117 108.439 -155.2087
2280.149170 108.534 -156.1081
2296.672119 108.619 -157.0402
2313.314697 108.692 -157.9909
2330.077881 108.754 -158.9492
2346.962646 108.807 -159.9099
2363.969727 108.851 -160.8704
2381.100098 108.885 -161.8248
2398.354492 108.908 -162.7623
2415.733887 108.923 -163.6692
2433.239258 108.930 -164.5335
2450.871582 108.933 -165.3491
2468.631592 108.935 -166.1180
2486.520264 108.937 -166.8502
2504.538574 108.942 -167.5597
2522.687500 108.950 -168.2615
2540.968018 108.962 -168.9711
2559.380859 108.977 -169.7059
2577.927246 108.993 -170.4839
2596.607910 109.008 -171.3176
2615.424072 109.018 -172.2092
2634.376465 109.019 -173.1507
2653.466309 109.009 -174.1263
2672.694336 108.986 -175.1161
2692.061768 108.951 -176.1005
2711.569580 108.906 -177.0652
2731.218750 108.853 -178.0060
2751.010254 108.792 -178.9269
2770.945312 108.723 -179.8336
2791.024658 108.647 179.2718
2811.249512 108.562 178.3925
2831.621094 108.467 177.5359
2852.140137 108.361 176.7112
2872.807861 108.244 175.9293
2893.625488 108.116 175.2048
2914.593994 107.978 174.5556
2935.714355 107.831 173.9971
2956.987793 107.680 173.5357
2978.415283 107.526 173.1690
2999.998047 107.373 172.8904
3021.737305 107.220 172.6928
3043.634033 107.070 172.5719
3065.689453 106.923 172.5261
3087.904785 106.780 172.5544
3110.281006 106.644 172.6500
3132.819336 106.516 172.7969
3155.520996 106.398 172.9736
3178.387207 106.287 173.1597
3201.419189 106.184 173.3405
3224.617920 106.083 173.5080
3247.984863 105.984 173.6616
3271.520996 105.881 173.8096
3295.227783 105.775 173.9711
3319.106445 105.663 174.1707
3343.157959 105.548 174.4281
3367.383789 105.432 174.7534
3391.785156 105.318 175.1482
3416.363525 105.208 175.6101
3441.119873 105.102 176.1376
3466.055664 105.003 176.7318
3491.172119 104.912 177.3911
3516.470703 104.833 178.1064
3541.952393 104.766 178.8599
3567.618896 104.713 179.6301
3593.471436 104.672 -179.6041
3619.511230 104.643 -178.8603
3645.739746 104.624 -178.1499
3672.158203 104.611 -177.4750
3698.768066 104.604 -176.8280
3725.570801 104.600 -176.1998
3752.567871 104.601 -175.5859
3779.760498 104.606 -174.9869
3807.150146 104.615 -174.4050
3834.738281 104.626 -173.8378
3862.526367 104.642 -173.2768
3890.515869 104.662 -172.7147
3918.708252 104.688 -172.1521
3947.104736 104.724 -171.5990
3975.707031 104.769 -171.0716
4004.516602 104.824 -170.5900
4033.534912 104.888 -170.1740
4062.763672 104.959 -169.8384
4092.204102 105.034 -169.5916
4121.857910 105.111 -169.4425
4151.726562 105.190 -169.4054
4181.811523 105.266 -169.4981
4212.114746 105.334 -169.7338
4242.637695 105.387 -170.1143
4273.381836 105.418 -170.6282
4304.348633 105.419 -171.2496
4335.539551 105.381 -171.9294
4366.956543 105.294 -172.5815
4398.601074 105.153 -173.0703
4430.475098 104.960 -173.2059
4462.580078 104.730 -172.7635
4494.917969 104.501 -171.5541
4527.490234 104.324 -169.5448
4560.298340 104.254 -166.9592
4593.344238 104.317 -164.2380
4626.629395 104.502 -161.8426
4660.155762 104.773 -160.0652
4693.925293 105.084 -158.9835
4727.939453 105.401 -158.5308
4762.200195 105.700 -158.5837
4796.708984 105.970 -159.0193
4831.467773 106.207 -159.7348
4866.478516 106.408 -160.6485
4901.743164 106.574 -161.6984
4937.263184 106.708 -162.8407
4973.040527 106.811 -164.0457
5009.077148 106.883 -165.2885
5045.375000 106.926 -166.5435
5081.936035 106.941 -167.7848
5118.761719 106.930 -168.9898
5155.854492 106.896 -170.1415
5193.215820 106.842 -171.2299
5230.848145 106.769 -172.2488
5268.752930 106.680 -173.1913
5306.932617 106.575 -174.0504
5345.388672 106.457 -174.8218
5384.123535 106.325 -175.5022
5423.139160 106.182 -176.0847
5462.437500 106.028 -176.5571
5502.020508 105.864 -176.9067
5541.890625 105.694 -177.1245
5582.049316 105.520 -177.2095
5622.499023 105.346 -177.1673
5663.242188 105.174 -177.0055
5704.280273 105.005 -176.7329
5745.615723 104.841 -176.3608
5787.250977 104.682 -175.8996
5829.187988 104.528 -175.3535
5871.428711 104.380 -174.7203
5913.975586 104.237 -173.9948
5956.830566 104.101 -173.1746
5999.996094 103.974 -172.2636
6043.474609 103.858 -171.2695
6087.268066 103.753 -170.2012
6131.378906 103.662 -169.0692
6175.809570 103.583 -167.8850
6220.562012 103.518 -166.6566
6265.638672 103.465 -165.3857
6311.041992 103.425 -164.0704
6356.774414 103.398 -162.7097
6402.838379 103.386 -161.3061
6449.235840 103.390 -159.8645
6495.969727 103.410 -158.3920
6543.041992 103.449 -156.8991
6590.455566 103.505 -155.3969
6638.212891 103.579 -153.8921
6686.315918 103.672 -152.3870
6734.767578 103.784 -150.8830
6783.570312 103.916 -149.3851
6832.727051 104.071 -147.9022
6882.239746 104.250 -146.4486
6932.111328 104.453 -145.0444
6982.344238 104.682 -143.7117
7032.941406 104.934 -142.4676
7083.904785 105.210 -141.3208
7135.237793 105.508 -140.2711
7186.942871 105.833 -139.3121
7239.022461 106.188 -138.4369
7291.479492 106.581 -137.6545
7344.316406 107.022 -137.0124
7397.536133 107.515 -136.6062
7451.141602 108.058 -136.5614
7505.135742 108.639 -136.9965
7559.520996 109.244 -138.0004
7614.300293 109.854 -139.6307
7669.476562 110.452 -141.9209
7725.052734 111.017 -144.8852
7781.031738 111.527 -148.5130
7837.416504 111.957 -152.7591
7894.209473 112.287 -157.5362
7951.414062 112.497 -162.7171
8009.033203 112.574 -168.1398
8067.069824 112.512 -173.6208
8125.527344 112.312 -178.9749
8184.408203 111.984 175.9689
8243.715820 111.540 171.3555
8303.453125 111.000 167.2984
8363.623047 110.383 163.8759
8424.229492 109.711 161.1329
8485.275391 109.005 159.0813
8546.763672 108.285 157.7010
8608.697266 107.570 156.9461
8671.079102 106.873 156.7555
8733.913086 106.205 157.0638
8797.202148 105.574 157.8096
8860.950195 104.983 158.9376
8925.160156 104.437 160.3951
8989.835938 103.938 162.1282
9054.980469 103.485 164.0839
9120.596680 103.080 166.2166
9186.688477 102.719 168.4924
9253.258789 102.402 170.8906
9320.311523 102.126 173.3960
9387.850586 101.891 175.9917
9455.878906 101.698 178.6585
9524.400391 101.545 -178.6212
9593.417969 101.432 -175.8584
9662.935547 101.359 -173.0558
9732.957031 101.327 -170.2153
9803.486328 101.338 -167.3456
9874.526367 101.396 -164.4641
9946.081055 101.505 -161.5922
10018.154297 101.666 -158.7500
10090.750000 101.885 -155.9570
10163.872070 102.167 -153.2420
10237.523438 102.521 -150.6530
10311.708984 102.953 -148.2592
10386.431641 103.466 -146.1490
10461.696289 104.065 -144.4273
10537.505859 104.745 -143.2183
10613.865234 105.500 -142.6674
10690.777344 106.312 -142.9306
10768.247070 107.154 -144.1540
10846.278320 107.991 -146.4481
10924.875000 108.782 -149.8692
11004.041016 109.480 -154.4055
11083.781250 110.041 -159.9628
11164.098633 110.422 -166.3520
11244.998047 110.587 -173.2854
11326.484375 110.519 179.5999
11408.560547 110.218 172.6914
11491.231445 109.704 166.3384
11574.501953 109.008 160.8151
11658.375977 108.168 156.3104
11742.857422 107.226 152.9326
11827.951172 106.224 150.7156
11913.661133 105.203 149.6260
11999.992188 104.199 149.5729
12086.949219 103.242 150.4280
12174.536133 102.355 152.0479
12262.757812 101.554 154.2913
12351.619141 100.847 157.0253
12441.124023 100.236 160.1304
12531.277344 99.722 163.5092
12622.083984 99.300 167.0894
12713.548828 98.969 170.8153
12805.676758 98.725 174.6389
12898.471680 98.567 178.5173
12991.939453 98.497 -177.5848
13086.083984 98.517 -173.7030
13180.911133 98.632 -169.8845
13276.425781 98.847 -166.1952
13372.631836 99.168 -162.7192
13469.535156 99.601 -159.5622
13567.140625 100.147 -156.8602
13665.454102 100.800 -154.7782
13764.479492 101.548 -153.4961
13864.222656 102.366 -153.1879
13964.688477 103.219 -154.0046
14065.882812 104.063 -156.0535
14167.809570 104.849 -159.3734
14270.475586 105.525 -163.9128
14373.885742 106.040 -169.5144
14478.044922 106.350 -175.9100
14582.958984 106.426 177.2723
14688.632812 106.256 170.4698
14795.072266 105.856 164.1146
14902.283203 105.259 158.5668
15010.271484 104.514 154.0770
15119.041992 103.677 150.7761
15228.600586 102.813 148.6743
15338.953125 101.986 147.6587
15450.105469 101.260 147.4962
15562.063477 100.689 147.8436
15674.833008 100.313 148.2747
15788.418945 100.139 148.3295
15902.828125 100.145 147.5818
16018.066406 100.274 145.7030
16134.139648 100.447 142.5061
16251.054688 100.576 137.9702
16368.816406 100.575 132.2543
16487.431641 100.373 125.6923
16606.906250 99.923 118.7529
16727.246094 99.207 111.9575
16848.458984 98.233 105.7852
16970.550781 97.032 100.6097
17093.527344 95.640 96.6854
17217.394531 94.099 94.1621
17342.158203 92.449 93.1031
17467.826172 90.731 93.4976
17594.404297 88.982 95.2722
17721.900391 87.238 98.3024
17850.320312 85.533 102.4256
17979.671875 83.896 107.4644
18109.960938 82.346 113.2582
18241.193359 80.892 119.6775
18373.376953 79.535 126.6046
18506.517578 78.277 133.9330
18640.623047 77.115 141.5830
18775.701172 76.049 149.5091
18911.757812 75.077 157.6989
19048.800781 74.197 166.1486
19186.835938 73.407 174.8281
19325.871094 72.709 -176.3563
19465.914062 72.108 -167.6100
19606.972656 71.613 -159.3056
19749.052734 71.232 -152.0169
19892.162109 70.975 -146.4826
20036.308594 70.846 -143.4587
