* Measurement data measured by REW V5.20.4
* Source: P:\Reviews\Squig\site\data\pw_02.txt
* Format: Comma/Tab/Space delimited data
* Dated: Jan 20, 2022 12:09:04 PM
* REW Settings:
*  C-weighting compensation: Off
*  Target level: 75.0 dB
* Note: Measurement imported from P:\Reviews\Squig\site\data\pw_02.txt Format: Comma/Tab/Space delimited data 28 values loaded, 20 Hz to 20,000 Hz
* Measurement: pw_02
* Smoothing: 1/12 octave
* Frequency Step: 1/48 octave
* Start Frequency: 20.000 Hz
*
* Freq(Hz)	SPL(dB)
20.000000	69.964
20.299999	69.957
20.600000	69.933
20.900000	69.903
21.200001	69.871
21.400000	69.849
21.799999	69.806
22.000000	69.785
22.400000	69.742
22.700001	69.710
23.000000	69.678
23.299999	69.646
23.600000	69.615
24.000000	69.573
24.299999	69.542
24.700001	69.501
25.000000	69.470
25.400000	69.429
25.799999	69.389
26.200001	69.349
26.500000	69.320
26.900000	69.281
27.200001	69.252
27.600000	69.215
28.000000	69.177
28.500000	69.132
29.000000	69.088
29.500000	69.046
30.000000	69.006
30.400000	68.978
30.700001	68.957
31.100000	68.932
31.500000	68.907
32.000000	68.877
32.500000	68.849
33.000000	68.822
33.500000	68.795
34.000000	68.769
34.500000	68.744
35.000000	68.720
35.500000	68.696
36.000000	68.673
36.500000	68.650
37.000000	68.628
37.500000	68.606
38.200001	68.576
38.700001	68.554
39.500000	68.520
40.000000	68.497
40.599998	68.469
41.200001	68.440
41.799999	68.410
42.500000	68.375
43.099998	68.345
43.700001	68.315
44.400002	68.280
45.000000	68.250
45.500000	68.225
46.200001	68.190
46.799999	68.160
47.500000	68.125
48.200001	68.090
48.700001	68.065
49.400002	68.029
50.000000	67.998
50.799999	67.955
51.500000	67.917
52.200001	67.879
53.000000	67.836
53.799999	67.793
54.500000	67.757
55.200001	67.721
56.000000	67.681
57.000000	67.633
58.000000	67.587
59.000000	67.546
60.000000	67.509
60.799999	67.484
61.500000	67.464
62.200001	67.445
63.000000	67.425
64.000000	67.400
65.000000	67.377
66.000000	67.353
67.000000	67.330
68.000000	67.307
69.000000	67.283
70.000000	67.260
71.000000	67.237
72.000000	67.213
73.000000	67.188
74.000000	67.164
75.000000	67.138
76.199997	67.106
77.500000	67.070
78.800003	67.030
80.000000	66.988
81.199997	66.940
82.500000	66.883
83.800003	66.823
85.000000	66.765
86.199997	66.706
87.500000	66.641
88.500000	66.590
90.000000	66.513
91.199997	66.452
92.500000	66.384
93.800003	66.317
95.000000	66.255
96.199997	66.194
97.500000	66.129
98.800003	66.065
100.000000	66.008
101.500000	65.941
103.000000	65.877
104.400002	65.818
106.000000	65.751
107.500000	65.690
109.000000	65.628
110.599998	65.563
112.000000	65.505
113.800003	65.432
115.000000	65.384
117.199997	65.295
118.000000	65.263
120.599998	65.159
122.000000	65.103
124.099998	65.019
125.000000	64.983
126.500000	64.923
128.000000	64.864
131.500000	64.726
132.000000	64.706
134.000000	64.627
136.000000	64.549
138.000000	64.470
140.000000	64.392
143.000000	64.274
145.000000	64.195
147.500000	64.095
150.000000	63.991
152.500000	63.881
155.000000	63.768
157.500000	63.653
160.000000	63.539
162.500000	63.425
165.000000	63.313
167.500000	63.202
170.000000	63.092
172.500000	62.985
175.000000	62.880
177.500000	62.778
180.000000	62.678
182.500000	62.581
185.000000	62.488
187.500000	62.398
190.000000	62.312
192.500000	62.230
195.000000	62.154
197.500000	62.085
200.000000	62.024
203.000000	61.962
206.000000	61.909
209.000000	61.861
212.000000	61.816
214.000000	61.788
218.000000	61.733
220.000000	61.706
224.000000	61.655
227.000000	61.618
230.000000	61.583
233.000000	61.549
236.000000	61.516
240.000000	61.474
243.000000	61.443
247.000000	61.405
250.000000	61.377
254.000000	61.341
258.000000	61.306
262.000000	61.273
265.000000	61.249
269.000000	61.218
272.000000	61.195
276.000000	61.165
280.000000	61.137
285.000000	61.101
290.000000	61.066
295.000000	61.029
300.000000	60.986
304.000000	60.947
307.000000	60.915
311.000000	60.871
315.000000	60.826
320.000000	60.768
325.000000	60.712
330.000000	60.655
335.000000	60.600
340.000000	60.545
345.000000	60.492
350.000000	60.439
355.000000	60.388
360.000000	60.338
365.000000	60.290
370.000000	60.243
375.000000	60.198
382.000000	60.139
387.000000	60.099
395.000000	60.044
400.000000	60.016
406.000000	59.991
412.000000	59.972
418.000000	59.959
425.000000	59.949
431.000000	59.943
437.000000	59.940
444.000000	59.939
450.000000	59.940
455.000000	59.943
462.000000	59.948
468.000000	59.954
475.000000	59.962
482.000000	59.972
487.000000	59.978
494.000000	59.987
500.000000	59.992
508.000000	59.996
515.000000	59.997
522.000000	59.997
530.000000	59.997
538.000000	59.997
545.000000	59.996
552.000000	59.996
560.000000	59.996
570.000000	59.996
580.000000	59.997
590.000000	59.998
600.000000	59.998
608.000000	59.997
615.000000	59.996
622.000000	59.995
630.000000	59.993
640.000000	59.992
650.000000	59.991
660.000000	59.990
670.000000	59.991
680.000000	59.992
690.000000	59.994
700.000000	59.997
710.000000	60.002
720.000000	60.007
730.000000	60.014
740.000000	60.022
750.000000	60.031
762.000000	60.045
775.000000	60.062
788.000000	60.084
800.000000	60.107
812.000000	60.135
825.000000	60.170
838.000000	60.208
850.000000	60.248
862.000000	60.290
875.000000	60.339
885.000000	60.380
900.000000	60.444
912.000000	60.500
925.000000	60.564
938.000000	60.632
950.000000	60.698
962.000000	60.768
975.000000	60.848
988.000000	60.933
1000.000000	61.016
1015.000000	61.126
1030.000000	61.240
1044.000000	61.348
1060.000000	61.474
1075.000000	61.593
1090.000000	61.712
1106.000000	61.840
1120.000000	61.952
1138.000000	62.097
1150.000000	62.194
1172.000000	62.373
1180.000000	62.438
1206.000000	62.650
1220.000000	62.764
1241.000000	62.935
1250.000000	63.009
1265.000000	63.132
1280.000000	63.254
1315.000000	63.539
1320.000000	63.580
1340.000000	63.742
1360.000000	63.904
1380.000000	64.065
1400.000000	64.225
1430.000000	64.463
1450.000000	64.620
1475.000000	64.813
1500.000000	64.999
1525.000000	65.178
1550.000000	65.351
1575.000000	65.520
1600.000000	65.687
1625.000000	65.850
1650.000000	66.012
1675.000000	66.170
1700.000000	66.326
1725.000000	66.480
1750.000000	66.631
1775.000000	66.780
1800.000000	66.926
1825.000000	67.070
1850.000000	67.211
1875.000000	67.349
1900.000000	67.486
1925.000000	67.620
1950.000000	67.752
1975.000000	67.884
2000.000000	68.017
2030.000000	68.178
2060.000000	68.338
2090.000000	68.496
2120.000000	68.649
2140.000000	68.749
2180.000000	68.940
2200.000000	69.031
2240.000000	69.205
2270.000000	69.328
2300.000000	69.442
2330.000000	69.549
2360.000000	69.647
2400.000000	69.762
2430.000000	69.835
2470.000000	69.909
2500.000000	69.940
2540.000000	69.948
2580.000000	69.925
2620.000000	69.879
2650.000000	69.834
2690.000000	69.763
2720.000000	69.702
2760.000000	69.615
2800.000000	69.520
2850.000000	69.395
2900.000000	69.267
2950.000000	69.143
3000.000000	69.030
3040.000000	68.953
3070.000000	68.901
3110.000000	68.838
3150.000000	68.778
3200.000000	68.707
3250.000000	68.638
3300.000000	68.572
3350.000000	68.509
3400.000000	68.449
3450.000000	68.392
3500.000000	68.338
3550.000000	68.287
3600.000000	68.240
3650.000000	68.196
3700.000000	68.156
3750.000000	68.121
3820.000000	68.079
3870.000000	68.057
3950.000000	68.044
4000.000000	68.058
4060.000000	68.101
4120.000000	68.167
4180.000000	68.244
4250.000000	68.341
4310.000000	68.426
4370.000000	68.510
4440.000000	68.605
4500.000000	68.683
4550.000000	68.743
4620.000000	68.819
4680.000000	68.874
4750.000000	68.925
4820.000000	68.956
4870.000000	68.960
4940.000000	68.929
5000.000000	68.855
5080.000000	68.682
5150.000000	68.472
5220.000000	68.227
5300.000000	67.919
5380.000000	67.594
5450.000000	67.300
5520.000000	67.001
5600.000000	66.657
5700.000000	66.231
5800.000000	65.821
5900.000000	65.447
6000.000000	65.136
6080.000000	64.943
6150.000000	64.809
6220.000000	64.695
6300.000000	64.581
6400.000000	64.451
6500.000000	64.330
6600.000000	64.216
6700.000000	64.109
6800.000000	64.007
6900.000000	63.910
7000.000000	63.818
7100.000000	63.730
7200.000000	63.644
7300.000000	63.561
7400.000000	63.480
7500.000000	63.400
7620.000000	63.303
7750.000000	63.194
7880.000000	63.071
8000.000000	62.930
8120.000000	62.755
8250.000000	62.536
8380.000000	62.303
8500.000000	62.084
8620.000000	61.866
8750.000000	61.635
8850.000000	61.461
9000.000000	61.210
9120.000000	61.019
9250.000000	60.825
9380.000000	60.645
9500.000000	60.495
9620.000000	60.365
9750.000000	60.259
9880.000000	60.208
10000.000000	60.233
10150.000000	60.369
10300.000000	60.593
10440.000000	60.846
10600.000000	61.155
10750.000000	61.448
10900.000000	61.735
11060.000000	62.023
11200.000000	62.253
11380.000000	62.506
11500.000000	62.637
11720.000000	62.764
11800.000000	62.759
12060.000000	62.463
12200.000000	62.109
12410.000000	61.377
12500.000000	61.012
12650.000000	60.361
12800.000000	59.671
13150.000000	57.989
13200.000000	57.745
13400.000000	56.777
13600.000000	55.841
13800.000000	54.992
14000.000000	54.359
14300.000000	54.278
14500.000000	54.896
14750.000000	55.931
15000.000000	56.599
15250.000000	56.579
15500.000000	56.008
15750.000000	55.144
16000.000000	54.147
16250.000000	53.088
16500.000000	51.992
16750.000000	50.866
17000.000000	49.716
17250.000000	48.542
17500.000000	47.348
17750.000000	46.135
18000.000000	44.905
18250.000000	43.659
18500.000000	42.399
18750.000000	41.129
19000.000000	39.852
19250.000000	38.581
19500.000000	37.360
19750.000000	36.300
20000.000000	35.621
